timestamp,confidence_006,norm_pos_x_006,norm_pos_y_006,gaze_point_3d_x_006,gaze_point_3d_y_006,gaze_point_3d_z_006,eye_center0_3d_x_006,eye_center0_3d_y_006,eye_center0_3d_z_006,eye_center1_3d_x_006,eye_center1_3d_y_006,eye_center1_3d_z_006,gaze_normal0_x_006,gaze_normal0_y_006,gaze_normal0_z_006,gaze_normal1_x_006,gaze_normal1_y_006,gaze_normal1_z_006,diameter0_2d_006,diameter1_2d_006,diameter0_3d_006,diameter1_3d_006,Timestamp RAW (no units)_006,Timestamp CAL (mSecs)_006,System Timestamp CAL (mSecs)_006,Wide Range Accelerometer X RAW (no units)_006,Wide Range Accelerometer X CAL (m/(sec ^2))_006,Wide Range Accelerometer Y RAW (no units)_006,Wide Range Accelerometer Y CAL (m/(sec ^2))_006,Wide Range Accelerometer Z RAW (no units)_006,Wide Range Accelerometer Z CAL (m/(sec ^2))_006,VSenseBatt RAW (no units)_006,VSenseBatt CAL (m Volts)_006,Internal ADC A13 RAW (no units)_006,Internal ADC A13 CAL (m Volts)_006,GSR RAW (no units)_006,GSR CAL (kOhms)_006,GSR Conductance CAL (u Siemens)_006
933518.2723458,1.0,0.6274761619623176,0.34979942502344274,24.650703644120902,10.263030501296152,112.2022025514706,20.853922077277502,13.197739507097603,-22.68015068146267,-40.6260690777099,13.657362632042442,-23.108925480392138,0.028342128905670557,0.008882327771797057,0.999558816669859,0.4339627122021484,-0.05319324306445626,0.8993591292194909,43.58013955145247,38.00712906064821,2.877233104178758,2.134417493851138,11650840.0,2496625152.0,1714318475264.0,-656.0,0.40220722556114197,288.0,0.17657878994941711,-15648.0,9.594114303588867,2672.0,3891.5283203125,2576.0,1887.179443359375,35110.0,411.2684631347656,2.431501865386963
933518.3398565,1.0,0.6275839601008993,0.34928279884166535,24.690162998734976,10.325114335331065,112.28215507143337,20.853922077277502,13.197739507097603,-22.68015068146267,-40.6260690777099,13.657362632042442,-23.108925480392138,0.02862044195897197,0.009781108974605818,0.999542495449443,0.4339627122021484,-0.05319324306445626,0.8993591292194909,43.64124469469047,38.00712906064821,2.881143767577155,2.134417493851138,11651160.0,2496625152.0,1714318475264.0,-576.0,0.35315757989883423,288.0,0.17657878994941711,-15616.0,9.574494361877441,2692.0,3920.656494140625,2379.0,1742.857177734375,35109.0,411.51641845703125,2.4300365447998047
933518.4067262,1.0,0.6275332032019859,0.3492359730509702,24.691678975168934,10.33458479564426,112.33339851780997,20.853922077277502,13.197739507097603,-22.68015068146267,-40.6260690777099,13.657362632042442,-23.108925480392138,0.02862044195897197,0.009781108974605818,0.999542495449443,0.4338398918618487,-0.05304544948487282,0.8994271112870944,43.64124469469047,37.964286893951005,2.881143767577155,2.132044439696758,11651480.0,2496625408.0,1714318475264.0,-576.0,0.35315757989883423,272.0,0.1667688488960266,-15568.0,9.545063972473145,2693.0,3922.11279296875,2293.0,1679.853515625,35110.0,411.2684631347656,2.431501865386963
933518.4738053,1.0,0.627691331241236,0.34943014210195245,24.74747014314439,10.325313228849556,112.44927413898426,20.853922077277502,13.197739507097603,-22.68015068146267,-40.6260690777099,13.657362632042442,-23.108925480392138,0.02900787329193608,0.0096882675167262,0.9995322309758716,0.4338398918618487,-0.05304544948487282,0.8994271112870944,43.730285258186605,37.964286893951005,2.8873668897266995,2.132044439696758,11651800.0,2496625408.0,1714318475264.0,-608.0,0.37277743220329285,256.0,0.1569589227437973,-15568.0,9.545063972473145,2681.0,3904.635986328125,2465.0,1805.86083984375,35110.0,411.2684631347656,2.431501865386963
933518.540679,1.0,0.6276271112342696,0.3499583162596118,24.749193882694648,10.275709797131736,112.5184438059692,20.853922077277502,13.197739507097603,-22.68015068146267,-40.6260690777099,13.657362632042442,-23.108925480392138,0.02900787329193608,0.0096882675167262,0.9995322309758716,0.4336591209370751,-0.05372021100276961,0.8994742385182031,43.730285258186605,38.04391899336227,2.8873668897266995,2.136617968164094,11652120.0,2496625408.0,1714318475264.0,-640.0,0.39239731431007385,208.0,0.12752912938594818,-15600.0,9.56468391418457,2681.0,3904.635986328125,2541.0,1861.5384521484375,35110.0,411.2684631347656,2.431501865386963
933518.6077332,1.0,0.6277909359300416,0.34949170633369,24.744464194848263,10.30990371780946,112.34836310734065,20.853922077277502,13.197739507097603,-22.68015068146267,-40.6260690777099,13.657362632042442,-23.108925480392138,0.02900787329193608,0.0096882675167262,0.9995322309758716,0.43408219834717304,-0.05329095874988407,0.8992956792921913,43.730285258186605,37.962660046233864,2.8873668897266995,2.131954677920374,11652440.0,2496625408.0,1714318475264.0,-656.0,0.40220722556114197,256.0,0.1569589227437973,-15584.0,9.554874420166016,2692.0,3920.656494140625,2365.0,1732.6007080078125,35109.0,411.51641845703125,2.4300365447998047
933518.6749505,1.0,0.6273389132363314,0.3498824571804644,24.583224723072934,10.236860601259819,112.01656829773172,20.853922077277502,13.197739507097603,-22.68015068146267,-40.6260690777099,13.657362632042442,-23.108925480392138,0.027879946962345373,0.0085519346999146,0.9995746960434048,0.43408219834717304,-0.05329095874988407,0.8992956792921913,43.635731425602074,37.962660046233864,2.88110108361454,2.131954677920374,11652760.0,2496625408.0,1714318475264.0,-576.0,0.35315757989883423,240.0,0.1471489816904068,-15632.0,9.584303855895996,2694.0,3923.5693359375,2286.0,1674.7252197265625,35109.0,411.51641845703125,2.4300365447998047
933518.742726,1.0,0.6273755096177951,0.3502051663251692,24.582049374029317,10.199924028653916,111.98180287005091,20.853922077277502,13.197739507097603,-22.68015068146267,-40.6260690777099,13.657362632042442,-23.108925480392138,0.027879946962345373,0.0085519346999146,0.9995746960434048,0.4341582857594099,-0.053820851213788067,0.8992273899749016,43.635731425602074,38.182964459456485,2.88110108361454,2.144313539943924,11653080.0,2496625408.0,1714318475264.0,-640.0,0.39239731431007385,288.0,0.17657878994941711,-15568.0,9.545063972473145,2694.0,3923.5693359375,2250.0,1648.3516845703125,35110.0,411.2684631347656,2.431501865386963
933518.8096361,1.0,0.6270675138672429,0.3505687100666841,24.472564524878376,10.140296110253484,111.75677907219139,20.853922077277502,13.197739507097603,-22.68015068146267,-40.6260690777099,13.657362632042442,-23.108925480392138,0.02711007251956395,0.0076346950627782075,0.9996032990138048,0.4341582857594099,-0.053820851213788067,0.8992273899749016,43.569259054861746,38.182964459456485,2.8768236382454115,2.144313539943924,11653400.0,2496625408.0,1714318475264.0,-592.0,0.36296749114990234,256.0,0.1569589227437973,-15568.0,9.545063972473145,2688.0,3914.830810546875,2218.0,1624.908447265625,35110.0,411.2684631347656,2.431501865386963
933518.8769682,1.0,0.6270094711022705,0.35068227021421006,24.474129180961015,10.133574540793305,111.81604039146931,20.853922077277502,13.197739507097603,-22.68015068146267,-40.6260690777099,13.657362632042442,-23.108925480392138,0.02711007251956395,0.0076346950627782075,0.9996032990138048,0.4340108157729475,-0.053897033546937825,0.8992940128606111,43.569259054861746,38.03721736961321,2.8768236382454115,2.136248782943055,11653720.0,2496625408.0,1714318475264.0,-592.0,0.36296749114990234,288.0,0.17657878994941711,-15600.0,9.56468391418457,2679.0,3901.72314453125,2424.0,1775.82421875,35110.0,411.2684631347656,2.431501865386963
933518.9447352,1.0,0.6266790730151172,0.3504991898019527,24.358483855107053,10.129915396348078,111.57662337673048,20.853922077277502,13.197739507097603,-22.68015068146267,-40.6260690777099,13.657362632042442,-23.108925480392138,0.02629765262535207,0.007500132232281296,0.9996260208112304,0.4340108157729475,-0.053897033546937825,0.8992940128606111,43.61293745062426,38.03721736961321,2.879563125943962,2.136248782943055,11654040.0,2496625408.0,1714318475264.0,-624.0,0.38258737325668335,272.0,0.1667688488960266,-15584.0,9.554874420166016,2685.0,3910.46142578125,2533.0,1855.6776123046875,35110.0,411.2684631347656,2.431501865386963
933519.0116721,1.0,0.6270589543086968,0.35058673511737093,24.348280325061758,10.087585401493893,111.19687533034688,20.853922077277502,13.197739507097603,-22.68015068146267,-40.6260690777099,13.657362632042442,-23.108925480392138,0.02629765262535207,0.007500132232281296,0.9996260208112304,0.434939321990547,-0.054614919745699826,0.8988019785957161,43.61293745062426,38.23187157983205,2.879563125943962,2.147048459270779,11654360.0,2496625408.0,1714318475264.0,-576.0,0.35315757989883423,224.0,0.1373390555381775,-15632.0,9.584303855895996,2673.0,3892.984619140625,2559.0,1874.7252197265625,35110.0,411.2684631347656,2.431501865386963
933519.0786374,1.0,0.6273205269885648,0.3506574064801953,24.439709975694456,10.098191705796669,111.38544494003618,20.853922077277502,13.197739507097603,-22.68015068146267,-40.6260690777099,13.657362632042442,-23.108925480392138,0.026942536751293954,0.007716696391312016,0.9996071990087952,0.434939321990547,-0.054614919745699826,0.8988019785957161,43.489014849948205,38.23187157983205,2.8716938106006507,2.147048459270779,11654680.0,2496625408.0,1714318475264.0,-624.0,0.38258737325668335,240.0,0.1471489816904068,-15648.0,9.594114303588867,2678.0,3900.2666015625,2584.0,1893.040283203125,35110.0,411.2684631347656,2.431501865386963
933519.146044,1.0,0.6283866405687608,0.3520204026524779,24.414646860371853,9.867482646599242,110.35704652281464,20.853922077277502,13.197739507097603,-22.68015068146267,-40.77078626082813,13.609555246867494,-23.339987296925038,0.026942536751293954,0.007716696391312016,0.9996071990087952,0.437663117548787,-0.05785581931635267,0.8972757099736459,43.489014849948205,38.14526937408258,2.8716938106006507,2.1762675915341947,11655000.0,2496625408.0,1714318475264.0,-640.0,0.39239731431007385,192.0,0.11771918833255768,-15632.0,9.584303855895996,2690.0,3917.74365234375,2382.0,1745.054931640625,35110.0,411.2684631347656,2.431501865386963
933519.2133702,1.0,0.6286913666817295,0.35178880988802974,24.521477557761315,9.911981614893225,110.57483783619176,20.853922077277502,13.197739507097603,-22.68015068146267,-40.77078626082813,13.609555246867494,-23.339987296925038,0.02770127548002077,0.008431071380521743,0.9995806902757558,0.437663117548787,-0.05785581931635267,0.8972757099736459,43.48293937819391,38.14526937408258,2.8712455329275293,2.1762675915341947,11655320.0,2496625408.0,1714318475264.0,-704.0,0.4316370189189911,224.0,0.1373390555381775,-15648.0,9.594114303588867,2672.0,3891.5283203125,2482.0,1818.3150634765625,35110.0,411.2684631347656,2.431501865386963
933519.2811891,0.9730585813522339,0.6286423501571301,0.35188826180262955,24.52280676761083,9.905902108009016,110.62392367918697,20.853922077277502,13.197739507097603,-22.68015068146267,-40.77078626082813,13.609555246867494,-23.339987296925038,0.02770127548002077,0.008431071380521743,0.9995806902757558,0.43753956539945027,-0.05792551947954186,0.8973314676879918,43.48293937819391,38.23650390358247,2.8712455329275293,2.181467895995054,11655640.0,2496625408.0,1714318475264.0,-688.0,0.421827107667923,304.0,0.18638871610164642,-15600.0,9.56468391418457,2689.0,3916.287109375,2334.0,1709.89013671875,35110.0,411.2684631347656,2.431501865386963
933519.3486666,0.9730585813522339,0.6279113766902101,0.35219666541375405,24.267776798649713,9.82501889371494,110.10313049677633,20.853922077277502,13.197739507097603,-22.68015068146267,-40.77078626082813,13.609555246867494,-23.339987296925038,0.025887761843962086,0.007083132252217886,0.999639761626261,0.43753956539945027,-0.05792551947954186,0.8973314676879918,43.702985468135644,38.23650390358247,2.8858538416480592,2.181467895995054,11655960.0,2496625408.0,1714318475264.0,-592.0,0.36296749114990234,272.0,0.1667688488960266,-15616.0,9.574494361877441,2691.0,3919.199951171875,2268.0,1661.5384521484375,35109.0,411.51641845703125,2.4300365447998047
933519.415741,1.0,0.6276057904160488,0.35275814240041803,24.27547907149892,9.793033110560446,110.40702223260445,20.853922077277502,13.197739507097603,-22.68015068146267,-40.77078626082813,13.609555246867494,-23.339987296925038,0.025887761843962086,0.007083132252217886,0.999639761626261,0.43677161429640754,-0.058274620301210146,0.8976829203976536,43.702985468135644,38.294016986124085,2.8858538416480592,2.184803375148339,11656280.0,2496625408.0,1714318475264.0,-576.0,0.35315757989883423,272.0,0.1667688488960266,-15648.0,9.594114303588867,2692.0,3920.656494140625,2236.0,1638.09521484375,35110.0,411.2684631347656,2.431501865386963
933519.4832745,1.0,0.6272694601052625,0.35327648911242593,24.157865804272962,9.71716127064467,110.1672094946377,20.853922077277502,13.197739507097603,-22.68015068146267,-40.77078626082813,13.609555246867494,-23.339987296925038,0.025046637291570414,0.005909109356917894,0.9996688193531859,0.43677161429640754,-0.058274620301210146,0.8976829203976536,43.70918915277255,38.294016986124085,2.8864092005930657,2.184803375148339,11656600.0,2496625408.0,1714318475264.0,-640.0,0.39239731431007385,272.0,0.1667688488960266,-15600.0,9.56468391418457,2694.0,3923.5693359375,2225.0,1630.03662109375,35110.0,411.2684631347656,2.431501865386963
933519.5507744,1.0,0.627094883395675,0.35346786141929654,24.16215823469568,9.712047061208544,110.3399117681595,20.853922077277502,13.197739507097603,-22.68015068146267,-40.77078626082813,13.609555246867494,-23.339987296925038,0.025046637291570414,0.005909109356917894,0.9996688193531859,0.4363380773146546,-0.05828570396266801,0.8978930108865569,43.70918915277255,38.35790769836927,2.8864092005930657,2.1882871951105933,11656920.0,2496625408.0,1714318475264.0,-624.0,0.38258737325668335,240.0,0.1471489816904068,-15648.0,9.594114303588867,2691.0,3919.199951171875,2218.0,1624.908447265625,35110.0,411.2684631347656,2.431501865386963
933519.6177893,1.0,0.6271211652435454,0.35303692286348265,24.172245554700854,9.758415878743815,110.35954414611517,20.853922077277502,13.197739507097603,-22.68015068146267,-40.77078626082813,13.609555246867494,-23.339987296925038,0.025120778392937314,0.006576803112908468,0.9996627892213188,0.4363380773146546,-0.05828570396266801,0.8978930108865569,43.27595792446747,38.35790769836927,2.857882324698005,2.1882871951105933,11657240.0,2496625408.0,1714318475264.0,-640.0,0.39239731431007385,272.0,0.1667688488960266,-15648.0,9.594114303588867,2682.0,3906.09228515625,2429.0,1779.4871826171875,35111.0,411.0207824707031,2.432966947555542
933519.6847335,1.0,0.6269901754135747,0.3530932630230489,24.175511257273044,9.763597017392495,110.48890061613113,20.853922077277502,13.197739507097603,-22.68015068146267,-40.77078626082813,13.609555246867494,-23.339987296925038,0.025120778392937314,0.006576803112908468,0.9996627892213188,0.43601624675373296,-0.0581666479641188,0.8980570547751441,43.27595792446747,38.271254664705836,2.857882324698005,2.1833677551101096,11657560.0,2496625408.0,1714318475264.0,-624.0,0.38258737325668335,272.0,0.1667688488960266,-15552.0,9.53525447845459,2695.0,3925.025634765625,2321.0,1700.3663330078125,35110.0,411.2684631347656,2.431501865386963
933519.7516513,0.9969469010829926,0.6263694567481526,0.35308315815004676,23.961556732689523,9.723792865862313,110.04928940774094,20.853922077277502,13.197739507097603,-22.68015068146267,-40.77078626082813,13.609555246867494,-23.339987296925038,0.0235917092335498,0.005837477992885922,0.9997046339325041,0.43601624675373296,-0.0581666479641188,0.8980570547751441,43.572408739588454,38.271254664705836,2.87723729370606,2.1833677551101096,11657880.0,2496625408.0,1714318475264.0,-592.0,0.36296749114990234,336.0,0.20600858330726624,-15616.0,9.574494361877441,2673.0,3892.984619140625,2462.0,1803.6629638671875,35111.0,411.0207824707031,2.432966947555542
933519.8187249,0.9969469010829926,0.6262880843280404,0.35318496730628346,23.963431848177354,9.720133665131046,110.12968866702116,20.853922077277502,13.197739507097603,-22.68015068146267,-40.77078626082813,13.609555246867494,-23.339987296925038,0.0235917092335498,0.005837477992885922,0.9997046339325041,0.4358133843723864,-0.058190039955162864,0.8981540030818229,43.572408739588454,38.02861481805991,2.87723729370606,2.169646450112511,11658200.0,2496625408.0,1714318475264.0,-640.0,0.39239731431007385,272.0,0.1667688488960266,-15584.0,9.554874420166016,2687.0,3913.374267578125,2555.0,1871.794921875,35111.0,411.0207824707031,2.432966947555542
933519.886409,1.0,0.6269032917889688,0.3527140954348188,24.176706876492016,9.809486626576255,110.56691851615659,20.853922077277502,13.197739507097603,-22.68015068146267,-40.77078626082813,13.609555246867494,-23.339987296925038,0.025117436625911017,0.0072797458474183185,0.9996580013573343,0.4358133843723864,-0.058190039955162864,0.8981540030818229,43.35758978265426,38.02861481805991,2.863318296369829,2.169646450112511,11658520.0,2496625408.0,1714318475264.0,-640.0,0.39239731431007385,304.0,0.18638871610164642,-15664.0,9.603923797607422,2686.0,3911.91796875,2596.0,1901.83154296875,35110.0,411.2684631347656,2.431501865386963
933519.9536631,1.0,0.6267587924138203,0.35290271464716627,24.18028409497324,9.802238098509246,110.71103061499505,20.853922077277502,13.197739507097603,-22.68015068146267,-40.77078626082813,13.609555246867494,-23.339987296925038,0.025117436625911017,0.0072797458474183185,0.9996580013573343,0.43545238620123233,-0.05824294073503841,0.8983256532049987,43.35758978265426,38.14846246370256,2.863318296369829,2.176398394820917,11658840.0,2496625408.0,1714318475264.0,-592.0,0.36296749114990234,208.0,0.12752912938594818,-15536.0,9.525444984436035,2686.0,3911.91796875,2616.0,1916.4835205078125,35110.0,411.2684631347656,2.431501865386963
933520.0206233,1.0,0.6276548292654479,0.3529497564640848,24.492784952990267,9.85720445271549,111.35409968484446,20.853922077277502,13.197739507097603,-22.68015068146267,-40.77078626082813,13.609555246867494,-23.339987296925038,0.02732840375526684,0.0083018589618373,0.9995920355254773,0.43545238620123233,-0.05824294073503841,0.8983256532049987,43.21414324558172,38.14846246370256,2.854034400138421,2.176398394820917,11659160.0,2496625408.0,1714318475264.0,-704.0,0.4316370189189911,240.0,0.1471489816904068,-15552.0,9.53525447845459,2701.0,3933.76416015625,2422.0,1774.3590087890625,35110.0,411.2684631347656,2.431501865386963
933520.0877404,1.0,0.6274717648161725,0.3535753894004273,24.497682036833012,9.807833231543418,111.54183170635585,20.853922077277502,13.197739507097603,-22.68015068146267,-40.77078626082813,13.609555246867494,-23.339987296925038,0.02732840375526684,0.0083018589618373,0.9995920355254773,0.4349774250159461,-0.0588751395250242,0.8985145283591167,43.21414324558172,38.42690872228973,2.854034400138421,2.192292979027056,11659480.0,2496625408.0,1714318475264.0,-624.0,0.38258737325668335,288.0,0.17657878994941711,-15632.0,9.584303855895996,2700.0,3932.3076171875,2328.0,1705.4945068359375,35110.0,411.2684631347656,2.431501865386963
933520.1545884,1.0,0.6273941864759796,0.3534753899069253,24.470653015353456,9.813104814370103,111.48587644768759,20.853922077277502,13.197739507097603,-22.68015068146267,-40.77078626082813,13.609555246867494,-23.339987296925038,0.027138807291591335,0.008355106887708581,0.9995967573615295,0.4349774250159461,-0.0588751395250242,0.8985145283591167,43.58643783445935,38.42690872228973,2.8786563984130282,2.192292979027056,11659800.0,2496625664.0,1714318475264.0,-592.0,0.36296749114990234,288.0,0.17657878994941711,-15600.0,9.56468391418457,2693.0,3922.11279296875,2267.0,1660.805908203125,35110.0,411.2684631347656,2.431501865386963
933520.2263352,1.0,0.6273789621878435,0.3531889085167267,24.471149163229022,9.844144847132137,111.49907499043573,20.853922077277502,13.197739507097603,-22.68015068146267,-40.77078626082813,13.609555246867494,-23.339987296925038,0.027138807291591335,0.008355106887708581,0.9995967573615295,0.4349527004286431,-0.058433205189263336,0.8985553454969485,43.58643783445935,38.245267010483836,2.8786563984130282,2.1818232668962447,11660120.0,2496625664.0,1714318475264.0,-624.0,0.38258737325668335,240.0,0.1471489816904068,-15616.0,9.574494361877441,2691.0,3919.199951171875,2240.0,1641.025634765625,35111.0,411.0207824707031,2.432966947555542
933520.2926262,1.0,0.627213671191547,0.35305763048891525,24.413467640800874,9.846779807773064,111.3798798241071,20.853922077277502,13.197739507097603,-22.68015068146267,-40.77078626082813,13.609555246867494,-23.339987296925038,0.02673326846698987,0.008347637795485396,0.9996077477192277,0.4349527004286431,-0.058433205189263336,0.8985553454969485,43.60204154626035,38.245267010483836,2.8796128268202654,2.1818232668962447,11660440.0,2496625664.0,1714318475264.0,-640.0,0.39239731431007385,272.0,0.1667688488960266,-15616.0,9.574494361877441,2679.0,3901.72314453125,2435.0,1783.8828125,35111.0,411.0207824707031,2.432966947555542
933520.3596964,1.0,0.6269084386082144,0.353271989798696,24.421685876808507,9.850541546680228,111.68745147288217,20.853922077277502,13.197739507097603,-22.68015068146267,-40.77078626082813,13.609555246867494,-23.339987296925038,0.02673326846698987,0.008347637795485396,0.9996077477192277,0.43419592056760575,-0.058276277311932495,0.8989314646095731,43.60204154626035,38.37254748579332,2.8796128268202654,2.18890058526929,11660760.0,2496625664.0,1714318475264.0,-608.0,0.37277743220329285,304.0,0.18638871610164642,-15648.0,9.594114303588867,2689.0,3916.287109375,2308.0,1690.842529296875,35111.0,411.0207824707031,2.432966947555542
933520.4266666,1.0,0.6263231329660714,0.3528673619071877,24.217899520758944,9.853603876106181,111.26559616120244,20.853922077277502,13.197739507097603,-22.68015068146267,-40.77078626082813,13.609555246867494,-23.339987296925038,0.02529777829947591,0.008233122710399976,0.9996460564137418,0.43419592056760575,-0.058276277311932495,0.8989314646095731,43.40746999004559,38.37254748579332,2.866462488648817,2.18890058526929,11661080.0,2496625664.0,1714318475264.0,-640.0,0.39239731431007385,304.0,0.18638871610164642,-15632.0,9.584303855895996,2692.0,3920.656494140625,2255.0,1652.0146484375,35111.0,411.0207824707031,2.432966947555542
933520.4946575,1.0,0.6261386914219528,0.3532536091501022,24.222510825801443,9.82926297777199,111.4528023423002,20.853922077277502,13.197739507097603,-22.68015068146267,-40.77078626082813,13.609555246867494,-23.339987296925038,0.02529777829947591,0.008233122710399976,0.9996460564137418,0.433726969429001,-0.05855620064483103,0.8991396372955518,43.40746999004559,38.31212002067675,2.866462488648817,2.1855314558621948,11661400.0,2496625664.0,1714318475264.0,-608.0,0.37277743220329285,256.0,0.1569589227437973,-15536.0,9.525444984436035,2694.0,3923.5693359375,2233.0,1635.8974609375,35111.0,411.0207824707031,2.432966947555542
933520.5624437,0.9931648671627045,0.6262603753247562,0.35345832521242304,24.264530014704278,9.815982518721825,111.54023287437055,20.853922077277502,13.197739507097603,-22.68015068146267,-40.77078626082813,13.609555246867494,-23.339987296925038,0.025593454815079957,0.0080785377198313,0.9996397912743058,0.433726969429001,-0.05855620064483103,0.8991396372955518,43.519610374637615,38.31212002067675,2.8741720034596216,2.1855314558621948,11661720.0,2496625664.0,1714318475264.0,-608.0,0.37277743220329285,272.0,0.1667688488960266,-15504.0,9.50582504272461,2692.0,3920.656494140625,2219.0,1625.6409912109375,35111.0,411.0207824707031,2.432966947555542
933520.6297714,0.9931648671627045,0.6260612441997473,0.35338611438300205,24.269736873721882,9.840458790535397,111.73982975762668,20.853922077277502,13.197739507097603,-22.68015068146267,-40.77078626082813,13.609555246867494,-23.339987296925038,0.025593454815079957,0.0080785377198313,0.9996397912743058,0.43324127410181346,-0.05814372890079389,0.8994005254635714,43.519610374637615,38.20375034661032,2.8741720034596216,2.1793553529313225,11662040.0,2496625664.0,1714318475264.0,-672.0,0.41201716661453247,272.0,0.1667688488960266,-15552.0,9.53525447845459,2693.0,3922.11279296875,2216.0,1623.4432373046875,35112.0,410.7734069824219,2.4344322681427
933520.6975921,1.0,0.6258346214918924,0.35253602820795493,24.192464145589398,9.914259899973171,111.57749329712104,20.853922077277502,13.197739507097603,-22.68015068146267,-40.77078626082813,13.609555246867494,-23.339987296925038,0.025052696204788432,0.009059515879777925,0.9996450808086311,0.43324127410181346,-0.05814372890079389,0.8994005254635714,43.303880354080235,38.20375034661032,2.8598163756064907,2.1793553529313225,11662360.0,2496625664.0,1714318475264.0,-640.0,0.39239731431007385,256.0,0.1569589227437973,-15632.0,9.584303855895996,2682.0,3906.09228515625,2427.0,1778.02197265625,35112.0,410.7734069824219,2.4344322681427
933520.7644149,1.0,0.6259977295271103,0.35275081088964655,24.18824946444988,9.877979370860555,111.41545690877344,20.853922077277502,13.197739507097603,-22.68015068146267,-40.77078626082813,13.609555246867494,-23.339987296925038,0.025052696204788432,0.009059515879777925,0.9996450808086311,0.4336323363595312,-0.058709316637528965,0.8991752960370569,43.303880354080235,38.38911145859882,2.8598163756064907,2.1899287350962315,11662680.0,2496625664.0,1714318475264.0,-672.0,0.41201716661453247,304.0,0.18638871610164642,-15632.0,9.584303855895996,2694.0,3923.5693359375,2316.0,1696.7032470703125,35111.0,411.0207824707031,2.432966947555542
933520.8313826,1.0,0.6260970112387115,0.3524649969047038,24.223487323782344,9.91453650226524,111.48749321685469,20.853922077277502,13.197739507097603,-22.68015068146267,-40.77078626082813,13.609555246867494,-23.339987296925038,0.025303248856280106,0.009602574769649576,0.9996337009900729,0.4336323363595312,-0.058709316637528965,0.8991752960370569,43.4120769537542,38.38911145859882,2.8669695945994027,2.1899287350962315,11663000.0,2496625664.0,1714318475264.0,-672.0,0.41201716661453247,256.0,0.1569589227437973,-15616.0,9.574494361877441,2673.0,3892.984619140625,2457.0,1800.0,35111.0,411.0207824707031,2.432966947555542
933520.8987405,1.0,0.626101003548238,0.3520971647357747,24.22349408973682,9.952373773020945,111.48087358386016,20.853922077277502,13.197739507097603,-22.68015068146267,-40.77078626082813,13.609555246867494,-23.339987296925038,0.025303248856280106,0.009602574769649576,0.9996337009900729,0.43365816800026447,-0.058178008111928865,0.8991973713811571,43.4120769537542,38.202564553305415,2.8669695945994027,2.1792976651143787,11663320.0,2496625664.0,1714318475264.0,-576.0,0.35315757989883423,272.0,0.1667688488960266,-15584.0,9.554874420166016,2684.0,3909.005126953125,2544.0,1863.7362060546875,35112.0,410.7734069824219,2.4344322681427
933520.9659415,1.0,0.6269860410789363,0.3531501256801354,24.53177862044207,9.901859128683508,112.12127806458642,20.853922077277502,13.197739507097603,-22.68015068146267,-40.77078626082813,13.609555246867494,-23.339987296925038,0.027465311462175828,0.009124142133685252,0.9995811156162414,0.43365816800026447,-0.058178008111928865,0.8991973713811571,43.29903174891106,38.202564553305415,2.8597111849550023,2.1792976651143787,11663640.0,2496625664.0,1714318475264.0,-656.0,0.40220722556114197,272.0,0.1667688488960266,-15664.0,9.603923797607422,2690.0,3917.74365234375,2360.0,1728.937744140625,35111.0,411.0207824707031,2.432966947555542
933521.0337324,1.0,0.6269205948157791,0.35272599144572636,24.53373470575491,9.951804899458967,112.18449801834441,20.853922077277502,13.197739507097603,-22.68015068146267,-40.77078626082813,13.609555246867494,-23.339987296925038,0.027465311462175828,0.009124142133685252,0.9995811156162414,0.43351591810019857,-0.05745653788140366,0.8993123456332759,43.29903174891106,38.05660253010448,2.8597111849550023,2.1708942525926243,11663960.0,2496625664.0,1714318475264.0,-544.0,0.3335376977920532,304.0,0.18638871610164642,-15616.0,9.574494361877441,2680.0,3903.179443359375,2490.0,1824.17578125,35112.0,410.7734069824219,2.4344322681427
933521.1008177,1.0,0.6270113192709755,0.3531247205590804,24.56490833296478,9.915991844956777,112.25011231786416,20.853922077277502,13.197739507097603,-22.68015068146267,-40.77078626082813,13.609555246867494,-23.339987296925038,0.027681145918529385,0.008644780768110333,0.9995794225203458,0.43351591810019857,-0.05745653788140366,0.8993123456332759,43.47818019142461,38.05660253010448,2.8715390133891643,2.1708942525926243,11664280.0,2496625664.0,1714318475264.0,-640.0,0.39239731431007385,272.0,0.1667688488960266,-15632.0,9.584303855895996,2693.0,3922.11279296875,2345.0,1717.94873046875,35112.0,410.7734069824219,2.4344322681427
933521.1687777,1.0,0.6267039507070455,0.35386496912168497,24.573460257046243,9.865016080741416,112.56810012467405,20.853922077277502,13.197739507097603,-22.68015068146267,-40.77078626082813,13.609555246867494,-23.339987296925038,0.027681145918529385,0.008644780768110333,0.9995794225203458,0.4327281999378703,-0.0580655359192107,0.8996525432170718,43.47818019142461,38.44439561906991,2.8715390133891643,2.192916093758588,11664600.0,2496625664.0,1714318475264.0,-672.0,0.41201716661453247,288.0,0.17657878994941711,-15616.0,9.574494361877441,2693.0,3922.11279296875,2276.0,1667.3992919921875,35111.0,411.0207824707031,2.432966947555542
933521.2364373,1.0,0.6265332977515173,0.3538334808171645,24.513096874547358,9.85680045224569,112.44286369720015,20.853922077277502,13.197739507097603,-22.68015068146267,-40.77078626082813,13.609555246867494,-23.339987296925038,0.027260222794979035,0.008483555388937738,0.9995923716901459,0.4327281999378703,-0.0580655359192107,0.8996525432170718,43.50954438080483,38.44439561906991,2.873440988815153,2.192916093758588,11664920.0,2496625664.0,1714318475264.0,-640.0,0.39239731431007385,320.0,0.19619865715503693,-15600.0,9.56468391418457,2692.0,3920.656494140625,2240.0,1641.025634765625,35112.0,410.7734069824219,2.4344322681427
933521.3038127,1.0,0.626909138923802,0.35061123703767727,24.503481126115958,10.160822872453867,112.03812213681007,20.853922077277502,13.197739507097603,-22.68015068146267,-40.77078626082813,13.609555246867494,-23.339987296925038,0.027260222794979035,0.008483555388937738,0.9995923716901459,0.43379078652185726,-0.05393112343728232,0.8993981251111995,43.50954438080483,38.12577774939489,2.873440988815153,2.173856470864592,11665240.0,2496625664.0,1714318475264.0,-656.0,0.40220722556114197,240.0,0.1471489816904068,-15648.0,9.594114303588867,2690.0,3917.74365234375,2217.0,1624.17578125,35111.0,411.0207824707031,2.432966947555542
933521.3706882,1.0,0.6256530836418432,0.3423213646848835,24.082814999789612,10.939454539170962,111.14135474454824,20.853922077277502,13.197739507097603,-22.68015068146267,-40.77078626082813,13.609555246867494,-23.339987296925038,0.024336743924213394,0.01920471320427109,0.9995193354237368,0.43379078652185726,-0.05393112343728232,0.8993981251111995,43.19646545973756,38.12577774939489,2.8500259685069773,2.173856470864592,11665560.0,2496625664.0,1714318475264.0,-608.0,0.37277743220329285,304.0,0.18638871610164642,-15584.0,9.554874420166016,2678.0,3900.2666015625,2421.0,1773.6263427734375,35112.0,410.7734069824219,2.4344322681427
933521.4376933,1.0,0.6263167237258588,0.334546513397433,24.069038711407217,11.677747426896385,110.41909655704173,20.853922077277502,13.197739507097603,-22.68015068146267,-40.77078626082813,13.609555246867494,-23.339987296925038,0.024336743924213394,0.01920471320427109,0.9995193354237368,0.4357601238835039,-0.04360409828679995,0.8990060050108833,43.19646545973756,38.33296371585799,2.8500259685069773,2.1829874736927795,11665880.0,2496625664.0,1714318475264.0,-640.0,0.39239731431007385,272.0,0.1667688488960266,-15616.0,9.574494361877441,2688.0,3914.830810546875,2295.0,1681.3187255859375,35112.0,410.7734069824219,2.4344322681427
933521.5056854,1.0,0.6243072385208694,0.3229031900914262,23.41132080525001,12.717335859828346,109.01622470365758,20.853922077277502,13.197739507097603,-22.68015068146267,-40.77078626082813,13.609555246867494,-23.339987296925038,0.019650893901198594,0.03389843735088326,0.9992320743020873,0.4357601238835039,-0.04360409828679995,0.8990060050108833,43.10853913757409,38.33296371585799,2.8397960633387735,2.1829874736927795,11666200.0,2496625664.0,1714318475264.0,-624.0,0.38258737325668335,256.0,0.1569589227437973,-15632.0,9.584303855895996,2687.0,3913.374267578125,2477.0,1814.6519775390625,35112.0,410.7734069824219,2.4344322681427
933521.5725551,1.0,0.6252576235904777,0.31660808466994295,23.39544090297309,13.250715167592201,108.04661010743622,20.853922077277502,13.197739507097603,-22.68015068146267,-40.77078626082813,13.609555246867494,-23.339987296925038,0.019650893901198594,0.03389843735088326,0.9992320743020873,0.438367485302836,-0.03594625940410179,0.8980767307218914,43.10853913757409,38.425824271340055,2.8397960633387735,2.18604816182575,11666520.0,2496625664.0,1714318475264.0,-576.0,0.35315757989883423,352.0,0.21581850945949554,-15584.0,9.554874420166016,2691.0,3919.199951171875,2338.0,1712.820556640625,35112.0,410.7734069824219,2.4344322681427
933521.6403235,1.0,0.6254121019148966,0.3095237119308556,23.462851890994475,13.988374020925738,108.14159817788915,20.853922077277502,13.197739507097603,-22.68015068146267,-40.77078626082813,13.609555246867494,-23.339987296925038,0.020183544914680142,0.0445708733015771,0.9988023136576184,0.438367485302836,-0.03594625940410179,0.8980767307218914,42.979627349012524,38.425824271340055,2.8293332661730317,2.18604816182575,11666840.0,2496625664.0,1714318475264.0,-624.0,0.38258737325668335,288.0,0.17657878994941711,-15632.0,9.584303855895996,2692.0,3920.656494140625,2265.0,1659.3406982421875,35111.0,411.0207824707031,2.432966947555542
933521.7071456,1.0,0.6255990156995088,0.3092906367324102,23.459272496337256,13.98978349225187,107.96140054357735,20.853922077277502,13.197739507097603,-22.68015068146267,-40.77078626082813,13.609555246867494,-23.339987296925038,0.020183544914680142,0.0445708733015771,0.9988023136576184,0.43883396094923455,-0.03591461888254906,0.8978501516779551,42.979627349012524,38.34414306511034,2.8293332661730317,2.18140034255937,11667160.0,2496625664.0,1714318475264.0,-608.0,0.37277743220329285,272.0,0.1667688488960266,-15632.0,9.584303855895996,2692.0,3920.656494140625,2235.0,1637.3626708984375,35112.0,410.7734069824219,2.4344322681427
933521.7739664,1.0,0.6268260289739065,0.31209205962342834,23.866167434828213,13.815821426866172,108.80425076912564,20.853922077277502,13.197739507097603,-22.68015068146267,-40.77078626082813,13.609555246867494,-23.339987296925038,0.023138619047590434,0.04201204760660545,0.9988491338357712,0.43883396094923455,-0.03591461888254906,0.8978501516779551,43.299015521070764,38.34414306511034,2.851380541390696,2.18140034255937,11667480.0,2496625664.0,1714318475264.0,-624.0,0.38258737325668335,288.0,0.17657878994941711,-15616.0,9.574494361877441,2683.0,3907.548828125,2439.0,1786.813232421875,35112.0,410.7734069824219,2.4344322681427
933521.8408069,1.0,0.6263882443286715,0.31257821440874556,23.87597008985525,13.817820235249743,109.2321393857813,20.853922077277502,13.197739507097603,-22.68015068146267,-40.77078626082813,13.609555246867494,-23.339987296925038,0.023138619047590434,0.04201204760660545,0.9988491338357712,0.43774296410486746,-0.035904865561256355,0.8983829573214938,43.299015521070764,38.46800702858139,2.851380541390696,2.1886215896344576,11667800.0,2496625664.0,1714318475264.0,-640.0,0.39239731431007385,272.0,0.1667688488960266,-15600.0,9.56468391418457,2694.0,3923.5693359375,2323.0,1701.83154296875,35112.0,410.7734069824219,2.4344322681427
933521.9086047,1.0,0.6275127060106859,0.3131953638810687,24.26036482336871,13.858143256379911,110.01801375280289,20.853922077277502,13.197739507097603,-22.68015068146267,-40.77078626082813,13.609555246867494,-23.339987296925038,0.02589691036458594,0.04255067047309197,0.9987586247316509,0.43774296410486746,-0.035904865561256355,0.8983829573214938,43.32712759015607,38.46800702858139,2.8533208162696275,2.1886215896344576,11668120.0,2496625664.0,1714318475264.0,-656.0,0.40220722556114197,256.0,0.1569589227437973,-15632.0,9.584303855895996,2693.0,3922.11279296875,2267.0,1660.805908203125,35111.0,411.0207824707031,2.432966947555542
933521.976433,1.0,0.6276133269023452,0.3131652218616978,24.257777367243023,13.849280885925797,109.91901244098403,20.853922077277502,13.197739507097603,-22.68015068146267,-40.77078626082813,13.609555246867494,-23.339987296925038,0.02589691036458594,0.04255067047309197,0.9987586247316509,0.43799031119014964,-0.036026641622552834,0.8982575178627541,43.32712759015607,38.41369840523589,2.8533208162696275,2.185545496606201,11668440.0,2496625920.0,1714318475264.0,-608.0,0.37277743220329285,288.0,0.17657878994941711,-15616.0,9.574494361877441,2692.0,3920.656494140625,2232.0,1635.164794921875,35112.0,410.7734069824219,2.4344322681427
933522.0442472,1.0,0.6280740279333953,0.31295305069547874,24.417887387663384,13.91443735084611,110.24308291713547,20.853922077277502,13.197739507097603,-22.68015068146267,-40.77078626082813,13.609555246867494,-23.339987296925038,0.027039470284811618,0.04346218080263305,0.9986890937056416,0.43799031119014964,-0.036026641622552834,0.8982575178627541,43.19594623164248,38.41369840523589,2.844250084792637,2.185545496606201,11668760.0,2496625920.0,1714318475264.0,-656.0,0.40220722556114197,224.0,0.1373390555381775,-15600.0,9.56468391418457,2692.0,3920.656494140625,2219.0,1625.6409912109375,35112.0,410.7734069824219,2.4344322681427
933522.1120627,1.0,0.6282789587911533,0.31284800048013717,24.412385950073176,13.900781662969269,110.04045660973631,20.853922077277502,13.197739507097603,-22.68015068146267,-40.77078626082813,13.609555246867494,-23.339987296925038,0.027039470284811618,0.04346218080263305,0.9986890937056416,0.4384957941097778,-0.03621059012867834,0.8980034697653279,43.19594623164248,38.323635883040964,2.844250084792637,2.180445148963607,11669080.0,2496625920.0,1714318475264.0,-608.0,0.37277743220329285,272.0,0.1667688488960266,-15616.0,9.574494361877441,2677.0,3898.810302734375,2418.0,1771.4285888671875,35112.0,410.7734069824219,2.4344322681427
933522.1788815,1.0,0.6287246188503166,0.3137289998967946,24.565607664170138,13.850749262832654,110.3571586172683,20.853922077277502,13.197739507097603,-22.68015068146267,-40.77078626082813,13.609555246867494,-23.339987296925038,0.02812330223621009,0.042733260028575255,0.998690616937328,0.4384957941097778,-0.03621059012867834,0.8980034697653279,43.31468346287109,38.323635883040964,2.8520644154173507,2.180445148963607,11669400.0,2496625920.0,1714318475264.0,-624.0,0.38258737325668335,272.0,0.1667688488960266,-15648.0,9.594114303588867,2693.0,3922.11279296875,2312.0,1693.77294921875,35112.0,410.7734069824219,2.4344322681427
933522.2467019,1.0,0.6291131037522534,0.31348999986132453,24.55477356187479,13.82922644020076,109.97264276511099,20.853922077277502,13.197739507097603,-22.68015068146267,-40.77078626082813,13.609555246867494,-23.339987296925038,0.02812330223621009,0.042733260028575255,0.998690616937328,0.43945436730546406,-0.03649952939989521,0.897523060099149,43.31468346287109,38.42235735853353,2.8520644154173507,2.1859297286353137,11669720.0,2496625920.0,1714318475264.0,-688.0,0.421827107667923,256.0,0.1569589227437973,-15632.0,9.584303855895996,2693.0,3922.11279296875,2260.0,1655.6776123046875,35112.0,410.7734069824219,2.4344322681427
933522.3145199,1.0,0.6296292777749523,0.31397495812450515,24.734092106905074,13.826989454733077,110.33876223596073,20.853922077277502,13.197739507097603,-22.68015068146267,-40.77078626082813,13.609555246867494,-23.339987296925038,0.029391988464760165,0.04268414255679893,0.9986561845741898,0.43945436730546406,-0.03649952939989521,0.897523060099149,43.23170510990459,38.42235735853353,2.846649195588397,2.1859297286353137,11670040.0,2496625920.0,1714318475264.0,-640.0,0.39239731431007385,208.0,0.12752912938594818,-15600.0,9.56468391418457,2694.0,3923.5693359375,2237.0,1638.827880859375,35112.0,410.7734069824219,2.4344322681427
933522.3823421,1.0,0.6294750660789754,0.3146794729566378,24.738458256509105,13.772507245766626,110.49856798851832,20.853922077277502,13.197739507097603,-22.68015068146267,-40.77078626082813,13.609555246867494,-23.339987296925038,0.029391988464760165,0.04268414255679893,0.9986561845741898,0.4390451057623185,-0.03728068012464035,0.8976912308781894,43.23170510990459,38.376552688590515,2.846649195588397,2.1835580454719743,11670360.0,2496625920.0,1714318475264.0,-656.0,0.40220722556114197,256.0,0.1569589227437973,-15616.0,9.574494361877441,2692.0,3920.656494140625,2221.0,1627.106201171875,35112.0,410.7734069824219,2.4344322681427
933522.4501672,1.0,0.630290882960433,0.3154638682091785,25.024794188019676,13.766764274569695,111.08396732264482,20.853922077277502,13.197739507097603,-22.68015068146267,-40.77078626082813,13.609555246867494,-23.339987296925038,0.03140044654795158,0.042579043459656955,0.9985995378602223,0.4390451057623185,-0.03728068012464035,0.8976912308781894,43.13817292080233,38.376552688590515,2.8406394580366188,2.1835580454719743,11670680.0,2496625920.0,1714318475264.0,-656.0,0.40220722556114197,272.0,0.1667688488960266,-15536.0,9.525444984436035,2679.0,3901.72314453125,2425.0,1776.5567626953125,35112.0,410.7734069824219,2.4344322681427
933522.5179749,1.0,0.6304495378628064,0.3149387915227557,25.01987991291161,13.802420853458443,110.92021279964486,20.853922077277502,13.197739507097603,-22.68015068146267,-40.77078626082813,13.609555246867494,-23.339987296925038,0.03140044654795158,0.042579043459656955,0.9985995378602223,0.4394568877969503,-0.03676949965588046,0.8975108064323655,43.13817292080233,38.354358128462174,2.8406394580366188,2.182157657878732,11671000.0,2496625920.0,1714318475264.0,-624.0,0.38258737325668335,272.0,0.1667688488960266,-15584.0,9.554874420166016,2692.0,3920.656494140625,2309.0,1691.5750732421875,35112.0,410.7734069824219,2.4344322681427
933522.5848869,1.0,0.6314123539981626,0.31513000860730433,25.36325294027071,13.873461160304268,111.61655672179376,20.853922077277502,13.197739507097603,-22.68015068146267,-40.77078626082813,13.609555246867494,-23.339987296925038,0.033792737119785025,0.043549102324268986,0.9984796075056832,0.4394568877969503,-0.03676949965588046,0.8975108064323655,42.83940062603658,38.354358128462174,2.820939557983791,2.182157657878732,11671320.0,2496625920.0,1714318475264.0,-656.0,0.40220722556114197,288.0,0.17657878994941711,-15616.0,9.574494361877441,2700.0,3932.3076171875,2271.0,1663.7362060546875,35111.0,411.0207824707031,2.432966947555542
933522.6526174,1.0,0.6309602272646962,0.3158818617177276,25.37872108061846,13.849175411102062,112.08135061034348,20.853922077277502,13.197739507097603,-22.68015068146267,-40.77078626082813,13.609555246867494,-23.339987296925038,0.033792737119785025,0.043549102324268986,0.9984796075056832,0.438317047974043,-0.03713280771361354,0.8980530719543385,42.83940062603658,38.455893032507916,2.820939557983791,2.188040836409414,11671640.0,2496625920.0,1714318475264.0,-704.0,0.4316370189189911,240.0,0.1471489816904068,-15648.0,9.594114303588867,2692.0,3920.656494140625,2236.0,1638.09521484375,35112.0,410.7734069824219,2.4344322681427
933522.7204684,1.0,0.6313708657271013,0.31622701690575117,25.526492672999083,13.851749670217977,112.38373992919675,20.853922077277502,13.197739507097603,-22.68015068146267,-40.77078626082813,13.609555246867494,-23.339987296925038,0.0348091806300482,0.043570646678923575,0.9984437488871594,0.438317047974043,-0.03713280771361354,0.8980530719543385,43.043853304980246,38.455893032507916,2.8343670482985868,2.188040836409414,11671960.0,2496625920.0,1714318475264.0,-640.0,0.39239731431007385,288.0,0.17657878994941711,-15568.0,9.545063972473145,2684.0,3909.005126953125,2438.0,1786.08056640625,35112.0,410.7734069824219,2.4344322681427
933522.7882741,1.0,0.6314648306629675,0.3162583066397112,25.52312501017026,13.837132761854061,112.28850301268609,20.853922077277502,13.197739507097603,-22.68015068146267,-40.77078626082813,13.609555246867494,-23.339987296925038,0.0348091806300482,0.043570646678923575,0.9984437488871594,0.438545261838765,-0.037333397067732095,0.8979333331501577,43.043853304980246,38.455086122325795,2.8343670482985868,2.1879323611941146,11672280.0,2496625920.0,1714318475264.0,-656.0,0.40220722556114197,272.0,0.1667688488960266,-15632.0,9.584303855895996,2678.0,3900.2666015625,2522.0,1847.6190185546875,35112.0,410.7734069824219,2.4344322681427
933522.8560961,1.0,0.6316688970770608,0.31655465011322503,25.59655010826841,13.825139856301355,112.43949382225424,20.853922077277502,13.197739507097603,-22.68015068146267,-40.77078626082813,13.609555246867494,-23.339987296925038,0.03531216934862673,0.04339569557729689,0.9984337055114156,0.438545261838765,-0.037333397067732095,0.8979333331501577,43.13764281747687,38.455086122325795,2.8406128694349877,2.1879323611941146,11672600.0,2496625920.0,1714318475264.0,-656.0,0.40220722556114197,288.0,0.17657878994941711,-15552.0,9.53525447845459,2684.0,3909.005126953125,2574.0,1885.7142333984375,35112.0,410.7734069824219,2.4344322681427
933522.92362,1.0,0.6317344609436922,0.3164293214486006,25.594186014971953,13.83042131209828,112.37132145110373,20.853922077277502,13.197739507097603,-22.68015068146267,-40.77078626082813,13.609555246867494,-23.339987296925038,0.03531216934862673,0.04339569557729689,0.9984337055114156,0.4387114804664181,-0.03725647254995137,0.8978553291929042,43.13764281747687,38.483051152592544,2.8406128694349877,2.189472876712389,11672920.0,2496625920.0,1714318475264.0,-656.0,0.40220722556114197,288.0,0.17657878994941711,-15600.0,9.56468391418457,2692.0,3920.656494140625,2378.0,1742.12451171875,35112.0,410.7734069824219,2.4344322681427
933522.9904579,1.0,0.6315122236035673,0.3179586762442329,25.510120907798225,13.646979279532108,112.21070200224544,20.853922077277502,13.197739507097603,-22.68015068146267,-40.77078626082813,13.609555246867494,-23.339987296925038,0.03472531933599768,0.04083037559581981,0.9985624830854187,0.4387114804664181,-0.03725647254995137,0.8978553291929042,43.11552326934745,38.483051152592544,2.839530985193146,2.189472876712389,11673240.0,2496625920.0,1714318475264.0,-672.0,0.41201716661453247,240.0,0.1471489816904068,-15648.0,9.594114303588867,2692.0,3920.656494140625,2288.0,1676.1904296875,35112.0,410.7734069824219,2.4344322681427
933523.058273,1.0,0.6313042584289205,0.3184414972213474,25.517466389565982,13.620943247982094,112.42748355929854,20.853922077277502,13.197739507097603,-22.68015068146267,-40.77078626082813,13.609555246867494,-23.339987296925038,0.03472531933599768,0.04083037559581981,0.9985624830854187,0.4381802962009296,-0.03762681518190938,0.8980992432913704,43.11552326934745,38.407330007359946,2.839530985193146,2.1853200717796355,11673560.0,2496625920.0,1714318475264.0,-656.0,0.40220722556114197,192.0,0.11771918833255768,-15568.0,9.545063972473145,2694.0,3923.5693359375,2251.0,1649.084228515625,35112.0,410.7734069824219,2.4344322681427
933523.1260829,1.0,0.6315946525083354,0.31760783706112594,25.624903059550178,13.737074017268316,112.64042895776561,20.853922077277502,13.197739507097603,-22.68015068146267,-40.77078626082813,13.609555246867494,-23.339987296925038,0.035467435159697476,0.042449027166805084,0.9984688984318862,0.4381802962009296,-0.03762681518190938,0.8980992432913704,43.20068085471551,38.407330007359946,2.8448507558503033,2.1853200717796355,11673880.0,2496625920.0,1714318475264.0,-672.0,0.41201716661453247,208.0,0.12752912938594818,-15632.0,9.584303855895996,2693.0,3922.11279296875,2230.0,1633.6995849609375,35111.0,411.0207824707031,2.432966947555542
933523.1939209,1.0,0.6314782908215261,0.3183423814544385,25.62906404901907,13.673570419414602,112.76767952658841,20.853922077277502,13.197739507097603,-22.68015068146267,-40.77078626082813,13.609555246867494,-23.339987296925038,0.035467435159697476,0.042449027166805084,0.9984688984318862,0.4378605125848812,-0.038518485509025785,0.8982174000724971,43.20068085471551,38.51631382876456,2.8448507558503033,2.191637408401319,11674200.0,2496625920.0,1714318475264.0,-656.0,0.40220722556114197,256.0,0.1569589227437973,-15600.0,9.56468391418457,2680.0,3903.179443359375,2429.0,1779.4871826171875,35112.0,410.7734069824219,2.4344322681427
933523.2617172,1.0,0.631604793283333,0.31877800873318596,25.674270839214543,13.639098745575513,112.86247916353204,20.853922077277502,13.197739507097603,-22.68015068146267,-40.77078626082813,13.609555246867494,-23.339987296925038,0.035774196246270255,0.04196501258329741,0.9984784146899806,0.4378605125848812,-0.038518485509025785,0.8982174000724971,43.15525268653209,38.51631382876456,2.8420700244557002,2.191637408401319,11674520.0,2496625920.0,1714318475264.0,-624.0,0.38258737325668335,272.0,0.1667688488960266,-15600.0,9.56468391418457,2692.0,3920.656494140625,2307.0,1690.10986328125,35112.0,410.7734069824219,2.4344322681427
933523.3285409,1.0,0.6315654445512905,0.3184870649511551,25.675769972669393,13.674509812178922,112.89960925809979,20.853922077277502,13.197739507097603,-22.68015068146267,-40.77078626082813,13.609555246867494,-23.339987296925038,0.035774196246270255,0.04196501258329741,0.9984784146899806,0.4377780467711399,-0.03802512446186238,0.8982786158397101,43.15525268653209,38.23039474292326,2.8420700244557002,2.175402859371542,11674840.0,2496625920.0,1714318475264.0,-624.0,0.38258737325668335,272.0,0.1667688488960266,-15584.0,9.554874420166016,2693.0,3922.11279296875,2261.0,1656.4102783203125,35112.0,410.7734069824219,2.4344322681427
933523.3963555,1.0,0.6318192717324791,0.3188828519474395,25.76779624973216,13.656313222454674,113.08941931179052,20.853922077277502,13.197739507097603,-22.68015068146267,-40.77078626082813,13.609555246867494,-23.339987296925038,0.03639992956677162,0.04170581893530159,0.9984666593304304,0.4377780467711399,-0.03802512446186238,0.8982786158397101,43.15267924046559,38.23039474292326,2.8421216062120878,2.175402859371542,11675160.0,2496625920.0,1714318475264.0,-608.0,0.37277743220329285,304.0,0.18638871610164642,-15616.0,9.574494361877441,2694.0,3923.5693359375,2237.0,1638.827880859375,35112.0,410.7734069824219,2.4344322681427
933523.4632034,1.0,0.6315039911923108,0.3191845870499591,25.77971904523932,13.662105685932755,113.41819050060468,20.853922077277502,13.197739507097603,-22.68015068146267,-40.77078626082813,13.609555246867494,-23.339987296925038,0.03639992956677162,0.04170581893530159,0.9984666593304304,0.436990884411997,-0.037953317565494776,0.8986648500005959,43.15267924046559,38.63575299251542,2.8421216062120878,2.1982081607676394,11675480.0,2496625920.0,1714318475264.0,-624.0,0.38258737325668335,240.0,0.1471489816904068,-15648.0,9.594114303588867,2687.0,3913.374267578125,2449.0,1794.13916015625,35111.0,411.0207824707031,2.432966947555542
933523.530993,1.0,0.6318010724999439,0.31905901138627224,25.88941544984456,13.703878787738166,113.6410443736215,20.853922077277502,13.197739507097603,-22.68015068146267,-40.77078626082813,13.609555246867494,-23.339987296925038,0.03714494679612263,0.04227954889562515,0.9984150903670755,0.436990884411997,-0.037953317565494776,0.8986648500005959,43.34649795803896,38.63575299251542,2.8549053576585863,2.1982081607676394,11675800.0,2496625920.0,1714318475264.0,-640.0,0.39239731431007385,272.0,0.1667688488960266,-15648.0,9.594114303588867,2680.0,3903.179443359375,2531.0,1854.21240234375,35112.0,410.7734069824219,2.4344322681427
933523.598716,1.0,0.6317819445620151,0.31885858681340395,25.89018449288734,13.727485781155302,113.65865232107227,20.853922077277502,13.197739507097603,-22.68015068146267,-40.77078626082813,13.609555246867494,-23.339987296925038,0.03714494679612263,0.04227954889562515,0.9984150903670755,0.4369534704572515,-0.03762610130810441,0.8986968015719852,43.34649795803896,38.51110572711134,2.8549053576585863,2.1910297773250687,11676120.0,2496625920.0,1714318475264.0,-656.0,0.40220722556114197,336.0,0.20600858330726624,-15616.0,9.574494361877441,2692.0,3920.656494140625,2356.0,1726.00732421875,35112.0,410.7734069824219,2.4344322681427
933523.6666355,1.0,0.6317378907081516,0.3197761659396835,25.871883729252517,13.624756892400391,113.6273164640345,20.853922077277502,13.197739507097603,-22.68015068146267,-40.77078626082813,13.609555246867494,-23.339987296925038,0.03701573207287244,0.04085421768824149,0.9984792278641509,0.4369534704572515,-0.03762610130810441,0.8986968015719852,43.33180167128122,38.51110572711134,2.8543235615221265,2.1910297773250687,11676440.0,2496625920.0,1714318475264.0,-624.0,0.38258737325668335,240.0,0.1471489816904068,-15584.0,9.554874420166016,2692.0,3920.656494140625,2278.0,1668.864501953125,35112.0,410.7734069824219,2.4344322681427
933523.7339167,1.0,0.6316243911336447,0.3198799467092375,25.876279804018253,13.62732484275253,113.74643004889239,20.853922077277502,13.197739507097603,-22.68015068146267,-40.77078626082813,13.609555246867494,-23.339987296925038,0.03701573207287244,0.04085421768824149,0.9984792278641509,0.43666990239660497,-0.037593270601572484,0.8988359930189804,43.33180167128122,38.465300152630114,2.8543235615221265,2.188411379264991,11676760.0,2496626176.0,1714318475264.0,-640.0,0.39239731431007385,320.0,0.19619865715503693,-15664.0,9.603923797607422,2691.0,3919.199951171875,2242.0,1642.4908447265625,35112.0,410.7734069824219,2.4344322681427
933523.8017336,0.982399195432663,0.6312468303113844,0.31992141636605576,25.737146001683925,13.587093242571596,113.46265852091618,20.853922077277502,13.197739507097603,-22.68015068146267,-40.77078626082813,13.609555246867494,-23.339987296925038,0.03607153527468089,0.040301745191429025,0.9985362355355225,0.43666990239660497,-0.037593270601572484,0.8988359930189804,43.23780839420672,38.465300152630114,2.8482183771017158,2.188411379264991,11677080.0,2496626176.0,1714318475264.0,-640.0,0.39239731431007385,240.0,0.1471489816904068,-15664.0,9.603923797607422,2687.0,3913.374267578125,2452.0,1796.3370361328125,35112.0,410.7734069824219,2.4344322681427
933523.8686735,0.982399195432663,0.6305736962902334,0.32080296804683195,25.762570511293163,13.573812898259487,114.17365306172874,20.853922077277502,13.197739507097603,-22.68015068146267,-40.77078626082813,13.609555246867494,-23.339987296925038,0.03607153527468089,0.040301745191429025,0.9985362355355225,0.43497225265795386,-0.03779127211637417,0.8996504649970962,43.23780839420672,38.593218698984174,2.8482183771017158,2.1956708727260246,11677400.0,2496626176.0,1714318475264.0,-560.0,0.3433476388454437,208.0,0.12752912938594818,-15600.0,9.56468391418457,2679.0,3901.72314453125,2537.0,1858.6080322265625,35112.0,410.7734069824219,2.4344322681427
933523.9365716,0.9805663526058197,0.62975000090242,0.32147557706869534,25.45876087143745,13.424152313501857,113.55451441962676,20.853922077277502,13.197739507097603,-22.68015068146267,-40.77078626082813,13.609555246867494,-23.339987296925038,0.03400398948233223,0.038232795232300866,0.9986901331584338,0.43497225265795386,-0.03779127211637417,0.8996504649970962,43.271930675607855,38.593218698984174,2.850545581647607,2.1956708727260246,11677720.0,2496626176.0,1714318475264.0,-624.0,0.38258737325668335,224.0,0.1373390555381775,-15600.0,9.56468391418457,2683.0,3907.548828125,2583.0,1892.3077392578125,35112.0,410.7734069824219,2.4344322681427
933524.0036493,0.9805663526058197,0.6302377902268319,0.3205831038101533,25.441591318230387,13.461090896508942,113.04079419980974,20.853922077277502,13.197739507097603,-22.68015068146267,-40.77078626082813,13.609555246867494,-23.339987296925038,0.03400398948233223,0.038232795232300866,0.9986901331584338,0.4362139887391547,-0.03727343977636945,0.8990706572430857,43.271930675607855,38.474428982521395,2.850545581647607,2.1886652378671076,11678040.0,2496626176.0,1714318475264.0,-704.0,0.4316370189189911,304.0,0.18638871610164642,-15632.0,9.584303855895996,2694.0,3923.5693359375,2393.0,1753.113525390625,35112.0,410.7734069824219,2.4344322681427
933524.0706731,1.0,0.6304270828787335,0.32090681814324784,25.50976508588743,13.444139679481902,113.18217810759296,20.853922077277502,13.197739507097603,-22.68015068146267,-40.77078626082813,13.609555246867494,-23.339987296925038,0.03446883757717188,0.03799552827097913,0.998683252621915,0.4362139887391547,-0.03727343977636945,0.8990706572430857,43.2332072629459,38.474428982521395,2.8483725244936107,2.1886652378671076,11678360.0,2496626176.0,1714318475264.0,-656.0,0.40220722556114197,256.0,0.1569589227437973,-15616.0,9.574494361877441,2673.0,3892.984619140625,2493.0,1826.3736572265625,35113.0,410.52630615234375,2.4358973503112793
933524.1378793,1.0,0.6308574498918936,0.32011638263986986,25.494491263402196,13.476907595331651,112.73141892032379,20.853922077277502,13.197739507097603,-22.68015068146267,-40.77078626082813,13.609555246867494,-23.339987296925038,0.03446883757717188,0.03799552827097913,0.998683252621915,0.4373069875291946,-0.03681231580791588,0.8985585412553815,43.2332072629459,38.31242573776424,2.8483725244936107,2.179289954682995,11678680.0,2496626176.0,1714318475264.0,-576.0,0.35315757989883423,256.0,0.1569589227437973,-15648.0,9.594114303588867,2684.0,3909.005126953125,2561.0,1876.1904296875,35112.0,410.7734069824219,2.4344322681427
933524.2049928,0.9945516288280487,0.6307668584590287,0.3211149053736968,25.459259446652315,13.362155857573043,112.66553617441276,20.853922077277502,13.197739507097603,-22.68015068146267,-40.77078626082813,13.609555246867494,-23.339987296925038,0.034221350223899466,0.0363912280989004,0.9987515094888753,0.4373069875291946,-0.03681231580791588,0.8985585412553815,43.34226981333001,38.31242573776424,2.856030134688311,2.179289954682995,11679000.0,2496626176.0,1714318475264.0,-608.0,0.37277743220329285,304.0,0.18638871610164642,-15648.0,9.594114303588867,2692.0,3920.656494140625,2371.0,1736.996337890625,35112.0,410.7734069824219,2.4344322681427
933524.2726928,0.9945516288280487,0.6309206659261897,0.32101386128662357,25.45384129308063,13.354863502497162,112.50738132547245,20.853922077277502,13.197739507097603,-22.68015068146267,-40.77078626082813,13.609555246867494,-23.339987296925038,0.034221350223899466,0.0363912280989004,0.9987515094888753,0.4376884744227488,-0.03691455865601829,0.8983685851123236,43.34226981333001,38.33680511897798,2.856030134688311,2.1805439248155114,11679320.0,2496626176.0,1714318475264.0,-656.0,0.40220722556114197,288.0,0.17657878994941711,-15616.0,9.574494361877441,2679.0,3901.72314453125,2498.0,1830.03662109375,35112.0,410.7734069824219,2.4344322681427
933524.3396543,1.0,0.6306553182958188,0.3213324954093838,25.357075533659852,13.296607264706248,112.31210775535409,20.853922077277502,13.197739507097603,-22.68015068146267,-40.77078626082813,13.609555246867494,-23.339987296925038,0.033553000857509216,0.03557365236264795,0.9988036400569621,0.4376884744227488,-0.03691455865601829,0.8983685851123236,43.375563548574526,38.33680511897798,2.8584611277242424,2.1805439248155114,11679640.0,2496626176.0,1714318475264.0,-640.0,0.39239731431007385,272.0,0.1667688488960266,-15664.0,9.603923797607422,2682.0,3906.09228515625,2563.0,1877.6556396484375,35112.0,410.7734069824219,2.4344322681427
933524.4069196,1.0,0.6311626734366494,0.32143454175854336,25.3396221225843,13.227450099533357,111.79955094478541,20.853922077277502,13.197739507097603,-22.68015068146267,-40.77078626082813,13.609555246867494,-23.339987296925038,0.033553000857509216,0.03557365236264795,0.9988036400569621,0.4389239105813706,-0.03789124352925704,0.8977249324730618,43.375563548574526,38.47947569732619,2.8584611277242424,2.1886287388816728,11679960.0,2496626176.0,1714318475264.0,-592.0,0.36296749114990234,288.0,0.17657878994941711,-15584.0,9.554874420166016,2693.0,3922.11279296875,2378.0,1742.12451171875,35111.0,411.0207824707031,2.432966947555542
933524.4737594,0.962936520576477,0.6318911767194411,0.32371699294055567,25.597613120497094,13.051726384626782,112.33620064082024,20.853922077277502,13.197739507097603,-22.68015068146267,-40.77078626082813,13.609555246867494,-23.339987296925038,0.035320206736350244,0.03312000548583784,0.9988270862530308,0.4389239105813706,-0.03789124352925704,0.8977249324730618,43.200516182290734,38.47947569732619,2.8480997148510276,2.1886287388816728,11680280.0,2496626176.0,1714318475264.0,-640.0,0.39239731431007385,272.0,0.1667688488960266,-15568.0,9.545063972473145,2679.0,3901.72314453125,2504.0,1834.4322509765625,35112.0,410.7734069824219,2.4344322681427
933524.5406944,0.962936520576477,0.6318066114646305,0.3271632252226917,25.60014616336988,12.699156687026424,112.45798612231097,20.853922077277502,13.197739507097603,-22.68015068146267,-40.77078626082813,13.609555246867494,-23.339987296925038,0.035320206736350244,0.03312000548583784,0.9988270862530308,0.4385576005756232,-0.04282361321811442,0.8976822205704519,43.200516182290734,38.53885413600687,2.8480997148510276,2.192991368822866,11680600.0,2496626176.0,1714318475264.0,-592.0,0.36296749114990234,272.0,0.1667688488960266,-15600.0,9.56468391418457,2684.0,3909.005126953125,2563.0,1877.6556396484375,35111.0,411.0207824707031,2.432966947555542
933524.6077682,0.9959941208362579,0.6325513170994466,0.33331279751107745,25.857798057034607,12.108974648882555,113.01320772293163,20.853922077277502,13.197739507097603,-22.68015068146267,-40.77078626082813,13.609555246867494,-23.339987296925038,0.037047510762101436,0.024928054318960974,0.9990025395634402,0.4385576005756232,-0.04282361321811442,0.8976822205704519,43.33595516677449,38.53885413600687,2.859383297451078,2.192991368822866,11680920.0,2496626176.0,1714318475264.0,-624.0,0.38258737325668335,272.0,0.1667688488960266,-15648.0,9.594114303588867,2678.0,3900.2666015625,2584.0,1893.040283203125,35111.0,411.0207824707031,2.432966947555542
933524.675552,0.9810405671596527,0.6337488750006279,0.33512043755597754,25.81209205701621,11.794847365583859,111.81437589058822,20.853922077277502,13.197739507097603,-22.68015068146267,-40.77078626082813,13.609555246867494,-23.339987296925038,0.037047510762101436,0.024928054318960974,0.9990025395634402,0.44138572630180445,-0.047380987272584,0.8960656687219435,43.33595516677449,38.182167399119315,2.859383297451078,2.1734608140436986,11681240.0,2496626176.0,1714318475264.0,-624.0,0.38258737325668335,208.0,0.12752912938594818,-15584.0,9.554874420166016,2694.0,3923.5693359375,2392.0,1752.3809814453125,35112.0,410.7734069824219,2.4344322681427
933524.7436517,0.9850464463233948,0.6336137143170608,0.3360077479983299,25.76075308682404,11.690283001901292,111.71470298886182,20.853922077277502,13.197739507097603,-22.68015068146267,-40.77078626082813,13.609555246867494,-23.339987296925038,0.03668947915641319,0.023439804872110587,0.9990517792721197,0.44138572630180445,-0.047380987272584,0.8960656687219435,43.098247971859756,38.182167399119315,2.8443710628158976,2.1734608140436986,11681560.0,2496626176.0,1714318475264.0,-656.0,0.40220722556114197,256.0,0.1569589227437973,-15664.0,9.603923797607422,2694.0,3923.5693359375,2299.0,1684.2490234375,35111.0,411.0207824707031,2.432966947555542
933524.8106665,1.0,0.6349415948030066,0.33552520780611184,25.712025099281114,11.607563010248054,110.39206721987124,20.853922077277502,13.197739507097603,-22.68015068146267,-40.77078626082813,13.609555246867494,-23.339987296925038,0.03668947915641319,0.023439804872110587,0.9990517792721197,0.4446090877576307,-0.04876871660504952,0.8943960931064179,43.098247971859756,38.18368046608164,2.8443710628158976,2.1736101192991075,11681880.0,2496626176.0,1714318475264.0,-688.0,0.421827107667923,256.0,0.1569589227437973,-15584.0,9.554874420166016,2691.0,3919.199951171875,2255.0,1652.0146484375,35111.0,411.0207824707031,2.432966947555542
933524.8776433,1.0,0.635620641587739,0.33566746614629805,25.957386512312585,11.647183760090147,110.88362458715444,20.853922077277502,13.197739507097603,-22.68015068146267,-40.77078626082813,13.609555246867494,-23.339987296925038,0.03838932982813769,0.024094103049560365,0.9989723387329518,0.4446090877576307,-0.04876871660504952,0.8943960931064179,43.1214768731687,38.18368046608164,2.846541125821454,2.1736101192991075,11682200.0,2496626176.0,1714318475264.0,-688.0,0.421827107667923,240.0,0.1471489816904068,-15584.0,9.554874420166016,2686.0,3911.91796875,2450.0,1794.871826171875,35112.0,410.7734069824219,2.4344322681427
933524.9446673,1.0,0.6357021027040728,0.3351370121372851,25.954314860787058,11.69400162232374,110.79796919892054,20.853922077277502,13.197739507097603,-22.68015068146267,-40.77078626082813,13.609555246867494,-23.339987296925038,0.03838932982813769,0.024094103049560365,0.9989723387329518,0.4448296917738439,-0.04812083485677713,0.8943214917293858,43.1214768731687,38.322726275856766,2.846541125821454,2.181220527003657,11682520.0,2496626176.0,1714318475264.0,-688.0,0.421827107667923,240.0,0.1471489816904068,-15600.0,9.56468391418457,2679.0,3901.72314453125,2537.0,1858.6080322265625,35112.0,410.7734069824219,2.4344322681427
933525.0119087,1.0,0.6365257994436193,0.33510906548869657,26.255423302424994,11.763945008281116,111.39988439467982,20.853922077277502,13.197739507097603,-22.68015068146267,-40.77078626082813,13.609555246867494,-23.339987296925038,0.04046047261727956,0.025188250813249404,0.9988636053919249,0.4448296917738439,-0.04812083485677713,0.8943214917293858,43.07399924320939,38.322726275856766,2.843960864883363,2.181220527003657,11682840.0,2496626176.0,1714318475264.0,-592.0,0.36296749114990234,240.0,0.1471489816904068,-15680.0,9.613734245300293,2683.0,3907.548828125,2585.0,1893.77294921875,35112.0,410.7734069824219,2.4344322681427
933525.0797377,1.0,0.6369557367424268,0.334720672744674,26.238024741915353,11.760946779549652,110.96881891537016,20.853922077277502,13.197739507097603,-22.68015068146267,-40.77078626082813,13.609555246867494,-23.339987296925038,0.04046047261727956,0.025188250813249404,0.9988636053919249,0.44587939507601476,-0.048229709044066905,0.893792738956953,43.07399924320939,38.31532386430801,2.843960864883363,2.1806354612408807,11683160.0,2496626176.0,1714318475264.0,-608.0,0.37277743220329285,256.0,0.1569589227437973,-15616.0,9.574494361877441,2700.0,3932.3076171875,2401.0,1758.974365234375,35111.0,411.0207824707031,2.432966947555542
933525.1467234,1.0,0.6375290635012437,0.3354661178548879,26.447119408106108,11.729498392118064,111.38903971524894,20.853922077277502,13.197739507097603,-22.68015068146267,-40.77078626082813,13.609555246867494,-23.339987296925038,0.04188816513835269,0.02481787981406894,0.9988140239618567,0.44587939507601476,-0.048229709044066905,0.893792738956953,43.13001028171538,38.31532386430801,2.8483229320568544,2.1806354612408807,11683480.0,2496626176.0,1714318475264.0,-576.0,0.35315757989883423,224.0,0.1373390555381775,-15568.0,9.545063972473145,2693.0,3922.11279296875,2306.0,1689.3773193359375,35111.0,411.0207824707031,2.432966947555542
933525.2143931,1.0,0.6385547427337867,0.3355349290277647,26.828641004753436,11.806735733935337,112.14986201430122,20.853922077277502,13.197739507097603,-22.68015068146267,-40.77078626082813,13.609555246867494,-23.339987296925038,0.04447684377898039,0.026032856704141735,0.9986711674716968,0.44587939507601476,-0.048229709044066905,0.893792738956953,43.069724437266764,38.31532386430801,2.8450296060640845,2.1806354612408807,11683800.0,2496626176.0,1714318475264.0,-624.0,0.38258737325668335,224.0,0.1373390555381775,-15552.0,9.53525447845459,2694.0,3923.5693359375,2257.0,1653.4798583984375,35111.0,411.0207824707031,2.432966947555542
933525.2816377,1.0,0.6393393397182955,0.33477892896425454,26.793425500240406,11.806108826516741,111.35598237261536,20.853922077277502,13.197739507097603,-22.68015068146267,-40.77078626082813,13.609555246867494,-23.339987296925038,0.04447684377898039,0.026032856704141735,0.9986711674716968,0.4477926258747382,-0.04835676783655928,0.8928288678221643,43.069724437266764,38.328874746176005,2.8450296060640845,2.181240929391195,11684120.0,2496626176.0,1714318475264.0,-656.0,0.40220722556114197,256.0,0.1569589227437973,-15648.0,9.594114303588867,2693.0,3922.11279296875,2237.0,1638.827880859375,35111.0,411.0207824707031,2.432966947555542
933525.3487242,1.0,0.6394096077672843,0.33475321167654337,26.79029522300325,11.801680986666332,111.2858206091784,20.853922077277502,13.197739507097603,-22.68015068146267,-40.77078626082813,13.609555246867494,-23.339987296925038,0.04447684377898039,0.026032856704141735,0.9986711674716968,0.4479615150499915,-0.04842961650799826,0.8927401936056226,43.069724437266764,38.27847271676299,2.8450296060640845,2.178290985949634,11684440.0,2496626176.0,1714318475264.0,-624.0,0.38258737325668335,240.0,0.1471489816904068,-15600.0,9.56468391418457,2679.0,3901.72314453125,2434.0,1783.150146484375,35111.0,411.0207824707031,2.432966947555542
933525.41578,1.0,0.6393912884538129,0.33478192044260535,26.783399855336963,11.797146754894882,111.27229196679032,20.853922077277502,13.197739507097603,-22.68015068146267,-40.77078626082813,13.609555246867494,-23.339987296925038,0.044429829378695815,0.025966682599908527,0.9986749829930334,0.4479615150499915,-0.04842961650799826,0.8927401936056226,43.29485664477479,38.27847271676299,2.8601415275710664,2.178290985949634,11684760.0,2496626176.0,1714318475264.0,-560.0,0.3433476388454437,224.0,0.1373390555381775,-15632.0,9.584303855895996,2685.0,3910.46142578125,2536.0,1857.87548828125,35111.0,411.0207824707031,2.432966947555542
933525.4830003,1.0,0.6401474882620881,0.3344494767594731,27.067365251343286,11.895097342804085,111.83332627421187,20.853922077277502,13.197739507097603,-22.68015068146267,-40.77078626082813,13.609555246867494,-23.339987296925038,0.046353056270586175,0.02743554411746206,0.9985482888139935,0.4479615150499915,-0.04842961650799826,0.8927401936056226,43.0570405565371,38.27847271676299,2.8449719262963793,2.178290985949634,11685080.0,2496626432.0,1714318475264.0,-624.0,0.38258737325668335,272.0,0.1667688488960266,-15728.0,9.643163681030273,2668.0,3885.70263671875,2551.0,1868.864501953125,35112.0,410.7734069824219,2.4344322681427
933525.5506873,1.0,0.6404319308811717,0.3340725943046714,27.054068387610585,11.905424020352875,111.54480764150522,20.853922077277502,13.197739507097603,-22.68015068146267,-40.77078626082813,13.609555246867494,-23.339987296925038,0.046353056270586175,0.02743554411746206,0.9985482888139935,0.4486581345042665,-0.04832509642070627,0.8923959678299096,43.0570405565371,38.19804409824005,2.8449719262963793,2.1735576663727443,11685400.0,2496626432.0,1714318475264.0,-672.0,0.41201716661453247,240.0,0.1471489816904068,-15680.0,9.613734245300293,2689.0,3916.287109375,2362.0,1730.4029541015625,35111.0,411.0207824707031,2.432966947555542
933525.6179004,0.9779089689254761,0.6409176482188307,0.33449901036318697,27.23608844853753,11.901072451142445,111.90678469831055,20.853922077277502,13.197739507097603,-22.68015068146267,-40.77078626082813,13.609555246867494,-23.339987296925038,0.04757633796432549,0.027431134074737868,0.99849087374361,0.4486581345042665,-0.04832509642070627,0.8923959678299096,43.07506045823224,38.19804409824005,2.846775344445313,2.1735576663727443,11685720.0,2496626432.0,1714318475264.0,-704.0,0.4316370189189911,240.0,0.1471489816904068,-15584.0,9.554874420166016,2678.0,3900.2666015625,2491.0,1824.908447265625,35111.0,411.0207824707031,2.432966947555542
933525.6857045,0.9779089689254761,0.6415627174927085,0.33372890993792825,27.205198278220447,11.91565043584572,111.25467695655186,20.853922077277502,13.197739507097603,-22.68015068146267,-40.77078626082813,13.609555246867494,-23.339987296925038,0.04757633796432549,0.027431134074737868,0.99849087374361,0.4502301711370991,-0.04821132186525235,0.8916100388857584,43.07506045823224,37.996053382703295,2.846775344445313,2.162009427710568,11686040.0,2496626432.0,1714318475264.0,-656.0,0.40220722556114197,272.0,0.1667688488960266,-15600.0,9.56468391418457,2676.0,3897.353759765625,2541.0,1861.5384521484375,35111.0,411.0207824707031,2.432966947555542
933525.7528863,1.0,0.6415854310066066,0.3345080739362858,27.2117484305887,11.8354877816587,111.27130416262497,20.853922077277502,13.197739507097603,-22.68015068146267,-40.77078626082813,13.609555246867494,-23.339987296925038,0.047616097034154974,0.02630486096487641,0.9985192845372854,0.4502301711370991,-0.04821132186525235,0.8916100388857584,43.1570222851645,37.996053382703295,2.8528989973546417,2.162009427710568,11686360.0,2496626432.0,1714318475264.0,-560.0,0.3433476388454437,336.0,0.20600858330726624,-15600.0,9.56468391418457,2692.0,3920.656494140625,2364.0,1731.8681640625,35111.0,411.0207824707031,2.432966947555542
933525.8209597,1.0,0.6416599286442703,0.3348605911726955,27.208237854737714,11.791258179255184,111.20109144122075,20.853922077277502,13.197739507097603,-22.68015068146267,-40.77078626082813,13.609555246867494,-23.339987296925038,0.047616097034154974,0.02630486096487641,0.9985192845372854,0.4503897041108754,-0.04884425912747677,0.8914950099586683,43.1570222851645,38.306194085012734,2.8528989973546417,2.179564014616786,11686680.0,2496626432.0,1714318475264.0,-528.0,0.3237277865409851,272.0,0.1667688488960266,-15584.0,9.554874420166016,2692.0,3920.656494140625,2280.0,1670.3297119140625,35110.0,411.2684631347656,2.431501865386963
933525.8887651,1.0,0.6418449248003595,0.3341189343290294,27.27985351343412,11.884784290489666,111.33845122500612,20.853922077277502,13.197739507097603,-22.68015068146267,-40.77078626082813,13.609555246867494,-23.339987296925038,0.048103473972857594,0.027644460466447987,0.9984597335883213,0.4503897041108754,-0.04884425912747677,0.8914950099586683,42.90777907713366,38.306194085012734,2.8365546613867467,2.179564014616786,11687000.0,2496626432.0,1714318475264.0,-592.0,0.36296749114990234,256.0,0.1569589227437973,-15632.0,9.584303855895996,2689.0,3916.287109375,2235.0,1637.3626708984375,35110.0,411.2684631347656,2.431501865386963
933525.9556753,1.0,0.6419280262519385,0.33351706818747284,27.27579793348393,11.939033767424826,111.24947476866637,20.853922077277502,13.197739507097603,-22.68015068146267,-40.77078626082813,13.609555246867494,-23.339987296925038,0.048103473972857594,0.027644460466447987,0.9984597335883213,0.45061651651234386,-0.048093560946697735,0.8914212048418789,42.90777907713366,38.14564956901521,2.8365546613867467,2.1704238956915454,11687320.0,2496626432.0,1714318475264.0,-688.0,0.421827107667923,208.0,0.12752912938594818,-15616.0,9.574494361877441,2693.0,3922.11279296875,2227.0,1631.5018310546875,35110.0,411.2684631347656,2.431501865386963
933526.0233344,1.0,0.6422954760981312,0.33373757679931315,27.414183406131322,11.946725120957973,111.52267049415916,20.853922077277502,13.197739507097603,-22.68015068146267,-40.77078626082813,13.609555246867494,-23.339987296925038,0.049033495802712115,0.027794507784920992,0.9984103272835069,0.45061651651234386,-0.048093560946697735,0.8914212048418789,42.76015870067836,38.14564956901521,2.8270508388320974,2.1704238956915454,11687640.0,2496626432.0,1714318475264.0,-624.0,0.38258737325668335,256.0,0.1569589227437973,-15664.0,9.603923797607422,2686.0,3911.91796875,2437.0,1785.3480224609375,35111.0,411.0207824707031,2.432966947555542
933526.0907175,1.0,0.6423800858868721,0.33420911270709175,27.41008274498139,11.888874134612923,111.44345959615501,20.853922077277502,13.197739507097603,-22.68015068146267,-40.77078626082813,13.609555246867494,-23.339987296925038,0.049033495802712115,0.027794507784920992,0.9984103272835069,0.45079389890002247,-0.048917111652758936,0.891286697366267,42.76015870067836,38.0976360761714,2.8270508388320974,2.167819794422451,11687960.0,2496626432.0,1714318475264.0,-688.0,0.421827107667923,256.0,0.1569589227437973,-15680.0,9.613734245300293,2678.0,3900.2666015625,2525.0,1849.81689453125,35111.0,411.0207824707031,2.432966947555542
933526.1577263,1.0,0.6429113679793894,0.33442197061606604,27.611618265104674,11.911094147992529,111.84058246283787,20.853922077277502,13.197739507097603,-22.68015068146267,-40.77078626082813,13.609555246867494,-23.339987296925038,0.05038239937956388,0.028168880608118445,0.9983326740110451,0.45079389890002247,-0.048917111652758936,0.891286697366267,42.84723424146416,38.0976360761714,2.8332162926579394,2.167819794422451,11688280.0,2496626432.0,1714318475264.0,-640.0,0.39239731431007385,256.0,0.1569589227437973,-15600.0,9.56468391418457,2691.0,3919.199951171875,2359.0,1728.205078125,35110.0,411.2684631347656,2.431501865386963
933526.2246752,1.0,0.6428035756025933,0.33465788151345344,27.61712825542221,11.89738994567484,111.95122435377708,20.853922077277502,13.197739507097603,-22.68015068146267,-40.77078626082813,13.609555246867494,-23.339987296925038,0.05038239937956388,0.028168880608118445,0.9983326740110451,0.4505264494541846,-0.04909360983927901,0.8914122143066892,42.84723424146416,38.39334759422279,2.8332162926579394,2.1844530199813272,11688600.0,2496626432.0,1714318475264.0,-656.0,0.40220722556114197,208.0,0.12752912938594818,-15568.0,9.545063972473145,2668.0,3885.70263671875,2464.0,1805.128173828125,35111.0,411.0207824707031,2.432966947555542
933526.2919218,1.0,0.6423844943005216,0.3344010519025835,27.458122528740958,11.88928335699948,111.63723420014624,20.853922077277502,13.197739507097603,-22.68015068146267,-40.77078626082813,13.609555246867494,-23.339987296925038,0.04932032138109268,0.02800573458620085,0.9983902967923681,0.4505264494541846,-0.04909360983927901,0.8914122143066892,43.26758434830646,38.39334759422279,2.8609343252096826,2.1844530199813272,11688920.0,2496626432.0,1714318475264.0,-624.0,0.38258737325668335,240.0,0.1471489816904068,-15600.0,9.56468391418457,2684.0,3909.005126953125,2548.0,1866.6666259765625,35111.0,411.0207824707031,2.432966947555542
933526.3597896,1.0,0.6427126311556484,0.33383656055011823,27.441841772029687,11.91478406652426,111.304365405035,20.853922077277502,13.197739507097603,-22.68015068146267,-40.77078626082813,13.609555246867494,-23.339987296925038,0.04932032138109268,0.02800573458620085,0.9983902967923681,0.4513322208631741,-0.048782075544890606,0.8910216246064108,43.26758434830646,38.212958577236364,2.8609343252096826,2.1741913112453957,11689240.0,2496626432.0,1714318475264.0,-624.0,0.38258737325668335,240.0,0.1471489816904068,-15584.0,9.554874420166016,2692.0,3920.656494140625,2364.0,1731.8681640625,35110.0,411.2684631347656,2.431501865386963
933526.4267174,1.0,0.6426014447026612,0.33425937050464616,27.447378251600178,11.882003988747943,111.4194507479029,20.853922077277502,13.197739507097603,-22.68015068146267,-40.77078626082813,13.609555246867494,-23.339987296925038,0.04932032138109268,0.02800573458620085,0.9983902967923681,0.4510478693265035,-0.049226649843096625,0.8911411540947072,43.26758434830646,38.143508471329504,2.8609343252096826,2.1704891769636507,11689560.0,2496626432.0,1714318475264.0,-624.0,0.38258737325668335,208.0,0.12752912938594818,-15632.0,9.584303855895996,2680.0,3903.179443359375,2492.0,1825.6409912109375,35111.0,411.0207824707031,2.432966947555542
933526.4938339,1.0,0.6429786165018634,0.3342152096723232,27.59090505433577,11.918406159626304,111.70108142498552,20.853922077277502,13.197739507097603,-22.68015068146267,-40.77078626082813,13.609555246867494,-23.339987296925038,0.05028254168932653,0.028561394930477334,0.9983265561532891,0.4510478693265035,-0.049226649843096625,0.8911411540947072,42.6568587186768,38.143508471329504,2.8207776677455456,2.1704891769636507,11689880.0,2496626432.0,1714318475264.0,-608.0,0.37277743220329285,256.0,0.1569589227437973,-15648.0,9.594114303588867,2694.0,3923.5693359375,2346.0,1718.6812744140625,35110.0,411.2684631347656,2.431501865386963
933526.5606669,1.0,0.6430080615832592,0.3341473899382692,27.589407494536708,11.922491750008032,111.67092193229058,20.853922077277502,13.197739507097603,-22.68015068146267,-40.77078626082813,13.609555246867494,-23.339987296925038,0.05028254168932653,0.028561394930477334,0.9983265561532891,0.451121027171934,-0.04917352062766188,0.8911070551355881,42.6568587186768,38.19391579852068,2.8207776677455456,2.1733311359850997,11690200.0,2496626432.0,1714318475264.0,-608.0,0.37277743220329285,240.0,0.1471489816904068,-15632.0,9.584303855895996,2692.0,3920.656494140625,2272.0,1664.4688720703125,35110.0,411.2684631347656,2.431501865386963
933526.6284989,1.0,0.6427222881497898,0.33485303423218427,27.478898936672476,11.823958295466747,111.45741298265207,20.853922077277502,13.197739507097603,-22.68015068146267,-40.77078626082813,13.609555246867494,-23.339987296925038,0.04953799081456867,0.02714310414264062,0.9984033450282292,0.451121027171934,-0.04917352062766188,0.8911070551355881,43.39018880785267,38.19391579852068,2.869540074854076,2.1733311359850997,11690520.0,2496626432.0,1714318475264.0,-608.0,0.37277743220329285,224.0,0.1373390555381775,-15584.0,9.554874420166016,2680.0,3903.179443359375,2447.0,1792.6739501953125,35111.0,411.0207824707031,2.432966947555542
933526.6958471,1.0,0.6429180804601555,0.3343876010419099,27.469143892935573,11.852680234804499,111.25782352056355,20.853922077277502,13.197739507097603,-22.68015068146267,-40.77078626082813,13.609555246867494,-23.339987296925038,0.04953799081456867,0.02714310414264062,0.9984033450282292,0.4516076580044163,-0.04879903263557063,0.8908811243064917,43.39018880785267,38.21644952745884,2.869540074854076,2.1745201828985907,11690840.0,2496626432.0,1714318475264.0,-576.0,0.35315757989883423,240.0,0.1471489816904068,-15568.0,9.545063972473145,2692.0,3920.656494140625,2316.0,1696.7032470703125,35110.0,411.2684631347656,2.431501865386963
933526.7627514,1.0,0.6427078177606764,0.33382102016692394,27.39101557301482,11.89472024037419,111.10186598397048,20.853922077277502,13.197739507097603,-22.68015068146267,-40.77078626082813,13.609555246867494,-23.339987296925038,0.04901538708046727,0.027710170678810382,0.9984135607403892,0.4516076580044163,-0.04879903263557063,0.8908811243064917,42.905055270667894,38.21644952745884,2.8373727738857673,2.1745201828985907,11691160.0,2496626432.0,1714318475264.0,-608.0,0.37277743220329285,272.0,0.1667688488960266,-15584.0,9.554874420166016,2679.0,3901.72314453125,2475.0,1813.186767578125,35110.0,411.2684631347656,2.431501865386963
933526.8306965,1.0,0.6424076249219728,0.335110480572421,27.405859805539386,11.790760111468703,111.41358210192845,20.853922077277502,13.197739507097603,-22.68015068146267,-40.77078626082813,13.609555246867494,-23.339987296925038,0.04901538708046727,0.027710170678810382,0.9984135607403892,0.45083278310687425,-0.050215828156855984,0.8911948004104553,42.905055270667894,38.24626235845334,2.8373727738857673,2.176518552343005,11691480.0,2496626432.0,1714318475264.0,-624.0,0.38258737325668335,304.0,0.18638871610164642,-15616.0,9.574494361877441,2693.0,3922.11279296875,2336.0,1711.3553466796875,35110.0,411.2684631347656,2.431501865386963
933526.8977273,1.0,0.6429510169198439,0.3353361259715152,27.61192041291502,11.812273794282842,111.81959939180956,20.853922077277502,13.197739507097603,-22.68015068146267,-40.77078626082813,13.609555246867494,-23.339987296925038,0.05039478681738592,0.028080316178724928,0.9983345437802565,0.45083278310687425,-0.050215828156855984,0.8911948004104553,42.918680048901564,38.24626235845334,2.838689871177895,2.176518552343005,11691800.0,2496626432.0,1714318475264.0,-624.0,0.38258737325668335,272.0,0.1667688488960266,-15632.0,9.584303855895996,2672.0,3891.5283203125,2463.0,1804.3956298828125,35110.0,411.2684631347656,2.431501865386963
933526.9647319,1.0,0.6425352062778777,0.3357376382905505,27.633147292032476,11.81235845664225,112.2417341786446,20.853922077277502,13.197739507097603,-22.68015068146267,-40.77078626082813,13.609555246867494,-23.339987296925038,0.05039478681738592,0.028080316178724928,0.9983345437802565,0.4498257707623936,-0.05015235535495,0.8917070803859132,42.918680048901564,38.190712907972284,2.838689871177895,2.1732690020287078,11692120.0,2496626432.0,1714318475264.0,-640.0,0.39239731431007385,288.0,0.17657878994941711,-15616.0,9.574494361877441,2683.0,3907.548828125,2549.0,1867.3992919921875,35111.0,411.0207824707031,2.432966947555542
933527.0318787,1.0,0.6421401601774255,0.33628444519732914,27.48093550169662,11.721411580870809,111.94445101449881,20.853922077277502,13.197739507097603,-22.68015068146267,-40.77078626082813,13.609555246867494,-23.339987296925038,0.049376079653326486,0.02675679007928547,0.9984217931028555,0.4498257707623936,-0.05015235535495,0.8917070803859132,43.387057192600714,38.190712907972284,2.869774594977105,2.1732690020287078,11692440.0,2496626432.0,1714318475264.0,-640.0,0.39239731431007385,256.0,0.1569589227437973,-15680.0,9.613734245300293,2692.0,3920.656494140625,2365.0,1732.6007080078125,35110.0,411.2684631347656,2.431501865386963
933527.0997665,1.0,0.6421251469978545,0.33621320508794317,27.481674511903332,11.7303889011556,111.95876217810209,20.853922077277502,13.197739507097603,-22.68015068146267,-40.77078626082813,13.609555246867494,-23.339987296925038,0.049376079653326486,0.02675679007928547,0.9984217931028555,0.4497936102615989,-0.0500244522829625,0.891730487502601,43.387057192600714,38.12728912384966,2.869774594977105,2.169707650781932,11692760.0,2496626432.0,1714318475264.0,-672.0,0.41201716661453247,256.0,0.1569589227437973,-15584.0,9.554874420166016,2683.0,3907.548828125,2506.0,1835.8974609375,35110.0,411.2684631347656,2.431501865386963
933527.1674019,1.0,0.6431435161437489,0.3357300523037483,27.873536903265993,11.8671387391749,112.72864919824192,20.853922077277502,13.197739507097603,-22.68015068146267,-40.77078626082813,13.609555246867494,-23.339987296925038,0.051983604304176215,0.028795195705059593,0.9982327091354269,0.4497936102615989,-0.0500244522829625,0.891730487502601,42.90799688886205,38.12728912384966,2.8380818734782887,2.169707650781932,11693080.0,2496626432.0,1714318475264.0,-608.0,0.37277743220329285,272.0,0.1667688488960266,-15600.0,9.56468391418457,2684.0,3909.005126953125,2563.0,1877.6556396484375,35110.0,411.2684631347656,2.431501865386963
933527.234897,1.0,0.6433361214764132,0.33565195651724944,27.863314782974125,11.855663906745814,112.53240997882654,20.853922077277502,13.197739507097603,-22.68015068146267,-40.77078626082813,13.609555246867494,-23.339987296925038,0.051983604304176215,0.028795195705059593,0.9982327091354269,0.4502552666193604,-0.05021207721852012,0.8914869276567831,42.90799688886205,38.20945525863868,2.8380818734782887,2.1743104036210714,11693400.0,2496626688.0,1714318475264.0,-592.0,0.36296749114990234,304.0,0.18638871610164642,-15616.0,9.574494361877441,2691.0,3919.199951171875,2380.0,1743.5897216796875,35110.0,411.2684631347656,2.431501865386963
933527.301732,1.0,0.643751324094703,0.33583228975382484,28.023566464856977,11.871595364809409,112.84869055160782,20.853922077277502,13.197739507097603,-22.68015068146267,-40.77078626082813,13.609555246867494,-23.339987296925038,0.05304057750142568,0.029067309416645832,0.9981692184502545,0.4502552666193604,-0.05021207721852012,0.8914869276567831,42.83854033573341,38.20945525863868,2.833544121371939,2.1743104036210714,11693720.0,2496626688.0,1714318475264.0,-608.0,0.37277743220329285,272.0,0.1667688488960266,-15616.0,9.574494361877441,2688.0,3914.830810546875,2277.0,1668.1318359375,35109.0,411.51641845703125,2.4300365447998047
933527.3687536,1.0,0.6431889420365838,0.3361264442884472,28.054281015102816,11.89831565399571,113.42707782128868,20.853922077277502,13.197739507097603,-22.68015068146267,-40.77078626082813,13.609555246867494,-23.339987296925038,0.05304057750142568,0.029067309416645832,0.9981692184502545,0.44890205876232386,-0.04976114478420472,0.8921943566895681,42.83854033573341,37.983511267416695,2.833544121371939,2.161558384113135,11694040.0,2496626688.0,1714318475264.0,-640.0,0.39239731431007385,240.0,0.1471489816904068,-15632.0,9.584303855895996,2691.0,3919.199951171875,2243.0,1643.223388671875,35109.0,411.51641845703125,2.4300365447998047
933527.4358491,1.0,0.6433638213743779,0.3360739237278756,28.122676142754386,11.918894397001697,113.56191152098901,20.853922077277502,13.197739507097603,-22.68015068146267,-40.77078626082813,13.609555246867494,-23.339987296925038,0.05348878859781113,0.029372940398419527,0.9981363533439154,0.44890205876232386,-0.04976114478420472,0.8921943566895681,42.625221814907796,37.983511267416695,2.8194823246606844,2.161558384113135,11694360.0,2496626688.0,1714318475264.0,-624.0,0.38258737325668335,240.0,0.1471489816904068,-15632.0,9.584303855895996,2691.0,3919.199951171875,2228.0,1632.234375,35109.0,411.51641845703125,2.4300365447998047
933527.5027399,1.0,0.643210660887191,0.3362262194354416,28.13119620820772,11.918563026108028,113.7215285433699,20.853922077277502,13.197739507097603,-22.68015068146267,-40.77078626082813,13.609555246867494,-23.339987296925038,0.05348878859781113,0.029372940398419527,0.9981363533439154,0.4485290795970181,-0.04974425499943884,0.8923828628175257,42.625221814907796,38.080270667217086,2.8194823246606844,2.167003391294211,11694680.0,2496626688.0,1714318475264.0,-608.0,0.37277743220329285,304.0,0.18638871610164642,-15600.0,9.56468391418457,2679.0,3901.72314453125,2428.0,1778.754638671875,35110.0,411.2684631347656,2.431501865386963
933527.5699205,1.0,0.6431540214040696,0.3364997212954499,28.108367489832062,11.884302505809735,113.67780035904096,20.853922077277502,13.197739507097603,-22.68015068146267,-40.77078626082813,13.609555246867494,-23.339987296925038,0.05333797517042642,0.02889226779777404,0.9981584529854068,0.4485290795970181,-0.04974425499943884,0.8923828628175257,43.018591007139,38.080270667217086,2.845568482157341,2.167003391294211,11695000.0,2496626688.0,1714318475264.0,-624.0,0.38258737325668335,272.0,0.1667688488960266,-15664.0,9.603923797607422,2700.0,3932.3076171875,2329.0,1706.22705078125,35110.0,411.2684631347656,2.431501865386963
933527.6375603,1.0,0.6426159408174399,0.33671464099762105,28.138304373583157,11.91720002684146,114.23789028679559,20.853922077277502,13.197739507097603,-22.68015068146267,-40.77078626082813,13.609555246867494,-23.339987296925038,0.05333797517042642,0.02889226779777404,0.9981584529854068,0.44723202655453287,-0.049214288611755856,0.8930629699077016,43.018591007139,38.16070868739682,2.845568482157341,2.171448440796674,11695320.0,2496626688.0,1714318475264.0,-624.0,0.38258737325668335,208.0,0.12752912938594818,-15632.0,9.584303855895996,2692.0,3920.656494140625,2262.0,1657.142822265625,35109.0,411.51641845703125,2.4300365447998047
933527.7045612,0.9955368638038635,0.6425517269135336,0.3374611980804456,28.111255881322258,11.831070751238359,114.18800290266073,20.853922077277502,13.197739507097603,-22.68015068146267,-40.77078626082813,13.609555246867494,-23.339987296925038,0.053157473217058895,0.027696967255778717,0.9982019640563776,0.44723202655453287,-0.049214288611755856,0.8930629699077016,43.06472337510659,38.16070868739682,2.848843672253305,2.171448440796674,11695640.0,2496626688.0,1714318475264.0,-608.0,0.37277743220329285,256.0,0.1569589227437973,-15680.0,9.613734245300293,2692.0,3920.656494140625,2232.0,1635.164794921875,35109.0,411.51641845703125,2.4300365447998047
933527.7716114,0.9955368638038635,0.6422636860523253,0.33803155183835853,28.12741425927943,11.799806531109503,114.4946774460954,20.853922077277502,13.197739507097603,-22.68015068146267,-40.77078626082813,13.609555246867494,-23.339987296925038,0.053157473217058895,0.027696967255778717,0.9982019640563776,0.44651370625560727,-0.0496008466376771,0.8934009548566125,43.06472337510659,38.14200408490327,2.848843672253305,2.170490338302886,11695960.0,2496626688.0,1714318475264.0,-624.0,0.38258737325668335,272.0,0.1667688488960266,-15648.0,9.594114303588867,2693.0,3922.11279296875,2224.0,1629.3040771484375,35109.0,411.51641845703125,2.4300365447998047
933527.8385481,1.0,0.6424367512039642,0.3372499358090071,28.197446799542316,11.899252450959299,114.62996468813674,20.853922077277502,13.197739507097603,-22.68015068146267,-40.77078626082813,13.609555246867494,-23.339987296925038,0.05361663600892312,0.029086048428819143,0.9981378953480741,0.44651370625560727,-0.0496008466376771,0.8934009548566125,42.787896263450286,38.14200408490327,2.8302981870923847,2.170490338302886,11696280.0,2496626688.0,1714318475264.0,-688.0,0.421827107667923,320.0,0.19619865715503693,-15728.0,9.643163681030273,2684.0,3909.005126953125,2429.0,1779.4871826171875,35109.0,411.51641845703125,2.4300365447998047
933527.9057386,1.0,0.6424359772947512,0.33729715716881403,28.197500222188477,11.894267790668517,114.63129953358165,20.853922077277502,13.197739507097603,-22.68015068146267,-40.77078626082813,13.609555246867494,-23.339987296925038,0.05361663600892312,0.029086048428819143,0.9981378953480741,0.4465095191321371,-0.04966914284277474,0.8933992531750022,42.787896263450286,38.19995354360532,2.8302981870923847,2.173762111975848,11696600.0,2496626688.0,1714318475264.0,-656.0,0.40220722556114197,288.0,0.17657878994941711,-15648.0,9.594114303588867,2694.0,3923.5693359375,2319.0,1698.901123046875,35109.0,411.51641845703125,2.4300365447998047
933527.9737779,1.0,0.642149253870873,0.33751582210029496,28.084206917396592,11.846066341775227,114.40710145992979,20.853922077277502,13.197739507097603,-22.68015068146267,-40.77078626082813,13.609555246867494,-23.339987296925038,0.05287951653200696,0.028388273488878926,0.9981973064778634,0.4465095191321371,-0.04966914284277474,0.8933992531750022,42.98376247547429,38.19995354360532,2.84323988707776,2.173762111975848,11696920.0,2496626688.0,1714318475264.0,-624.0,0.38258737325668335,256.0,0.1569589227437973,-15648.0,9.594114303588867,2694.0,3923.5693359375,2264.0,1658.6080322265625,35109.0,411.51641845703125,2.4300365447998047
933528.0407513,1.0,0.6417096245830595,0.33768407371263265,28.10872608078526,11.873735923891822,114.86975236024627,20.853922077277502,13.197739507097603,-22.68015068146267,-40.77078626082813,13.609555246867494,-23.339987296925038,0.05287951653200696,0.028388273488878926,0.9981973064778634,0.4454453658621178,-0.049225037876843465,0.8939548767572039,42.98376247547429,37.9666154365635,2.84323988707776,2.160621173776007,11697240.0,2496626688.0,1714318475264.0,-672.0,0.41201716661453247,288.0,0.17657878994941711,-15616.0,9.574494361877441,2678.0,3900.2666015625,2443.0,1789.7435302734375,35109.0,411.51641845703125,2.4300365447998047
933528.1080229,1.0,0.6418277230269267,0.33790022258440666,28.154744288535007,11.860372386172857,114.96266896390904,20.853922077277502,13.197739507097603,-22.68015068146267,-40.77078626082813,13.609555246867494,-23.339987296925038,0.053176321969421764,0.028219110174624702,0.9981863356121223,0.4454453658621178,-0.049225037876843465,0.8939548767572039,42.94802245082682,37.9666154365635,2.8408915591923343,2.160621173776007,11697560.0,2496626688.0,1714318475264.0,-592.0,0.36296749114990234,336.0,0.20600858330726624,-15616.0,9.574494361877441,2695.0,3925.025634765625,2329.0,1706.22705078125,35109.0,411.51641845703125,2.4300365447998047
933528.1760595,1.0,0.6417610369012782,0.33792903961729026,28.15850670709301,11.864227479181316,115.0332886051176,20.853922077277502,13.197739507097603,-22.68015068146267,-40.77078626082813,13.609555246867494,-23.339987296925038,0.053176321969421764,0.028219110174624702,0.9981863356121223,0.445283523342568,-0.04916250101197966,0.8940389434101156,42.94802245082682,38.0616833120874,2.8408915591923343,2.1660723913464155,11697880.0,2496626688.0,1714318475264.0,-656.0,0.40220722556114197,272.0,0.1667688488960266,-15632.0,9.584303855895996,2679.0,3901.72314453125,2478.0,1815.3846435546875,35109.0,411.51641845703125,2.4300365447998047
933528.243771,1.0,0.6410632797939063,0.33799928502499876,27.884350857987773,11.797143152064734,114.48639462985263,20.853922077277502,13.197739507097603,-22.68015068146267,-40.77078626082813,13.609555246867494,-23.339987296925038,0.05139500355843722,0.027211197546698818,0.9983076200937778,0.445283523342568,-0.04916250101197966,0.8940389434101156,42.90996515835911,38.0616833120874,2.8381467303882806,2.1660723913464155,11698200.0,2496626688.0,1714318475264.0,-624.0,0.38258737325668335,272.0,0.1667688488960266,-15632.0,9.584303855895996,2683.0,3907.548828125,2558.0,1873.99267578125,35110.0,411.2684631347656,2.431501865386963
933528.3107221,1.0,0.6411051762958498,0.33776361404734223,27.882051820023268,11.818042802989314,114.44004355053305,20.853922077277502,13.197739507097603,-22.68015068146267,-40.77078626082813,13.609555246867494,-23.339987296925038,0.05139500355843722,0.027211197546698818,0.9983076200937778,0.44539572676974337,-0.04888157941268059,0.8939984551269504,42.90996515835911,37.9914168151207,2.8381467303882806,2.162263830061979,11698520.0,2496626688.0,1714318475264.0,-576.0,0.35315757989883423,272.0,0.1667688488960266,-15584.0,9.554874420166016,2694.0,3923.5693359375,2376.0,1740.6593017578125,35109.0,411.51641845703125,2.4300365447998047
933528.3777476,1.0,0.6413212294270102,0.3373322710833565,27.96762238198731,11.883140102853986,114.60862923053222,20.853922077277502,13.197739507097603,-22.68015068146267,-40.77078626082813,13.609555246867494,-23.339987296925038,0.05195518111599759,0.028133537680578045,0.9982530556991945,0.44539572676974337,-0.04888157941268059,0.8939984551269504,42.983709406580104,37.9914168151207,2.842768053565268,2.162263830061979,11698840.0,2496626688.0,1714318475264.0,-624.0,0.38258737325668335,240.0,0.1471489816904068,-15648.0,9.594114303588867,2688.0,3914.830810546875,2278.0,1668.864501953125,35109.0,411.51641845703125,2.4300365447998047
933528.4446024,1.0,0.6414985810530769,0.337409343004194,27.957944019206636,11.856434271890514,114.42389251120028,20.853922077277502,13.197739507097603,-22.68015068146267,-40.77078626082813,13.609555246867494,-23.339987296925038,0.05195518111599759,0.028133537680578045,0.9982530556991945,0.44581825409387826,-0.0492742856132004,0.8937662608836804,42.983709406580104,38.08438240942868,2.842768053565268,2.1676543252949916,11699160.0,2496626688.0,1714318475264.0,-560.0,0.3433476388454437,272.0,0.1667688488960266,-15616.0,9.574494361877441,2695.0,3925.025634765625,2252.0,1649.81689453125,35109.0,411.51641845703125,2.4300365447998047
933528.5117717,1.0,0.6412581784330197,0.3377600698864003,27.86319430791465,11.798111553018767,114.23681340862925,20.853922077277502,13.197739507097603,-22.68015068146267,-40.77078626082813,13.609555246867494,-23.339987296925038,0.05133465504517729,0.027300003909316476,0.9983083005654835,0.44581825409387826,-0.0492742856132004,0.8937662608836804,42.9783348949039,38.08438240942868,2.842392642559646,2.1676543252949916,11699480.0,2496626688.0,1714318475264.0,-656.0,0.40220722556114197,272.0,0.1667688488960266,-15648.0,9.594114303588867,2691.0,3919.199951171875,2231.0,1634.4322509765625,35109.0,411.51641845703125,2.4300365447998047
933528.5786581,1.0,0.6414694846491393,0.3372482415239466,27.851777253222537,11.830945711637805,114.01155725068128,20.853922077277502,13.197739507097603,-22.68015068146267,-40.77078626082813,13.609555246867494,-23.339987296925038,0.05133465504517729,0.027300003909316476,0.9983083005654835,0.4463504081878024,-0.04885377645932637,0.8935237107297402,42.9783348949039,37.92678865443867,2.842392642559646,2.158811348037015,11699800.0,2496626688.0,1714318475264.0,-608.0,0.37277743220329285,240.0,0.1471489816904068,-15648.0,9.594114303588867,2678.0,3900.2666015625,2427.0,1778.02197265625,35110.0,411.2684631347656,2.431501865386963
933528.645762,1.0,0.641207152804768,0.33681923488404697,27.75092556216157,11.85489923085579,113.80870575196784,20.853922077277502,13.197739507097603,-22.68015068146267,-40.77078626082813,13.609555246867494,-23.339987296925038,0.05067569135651343,0.027599074135750398,0.9983337445025028,0.4463504081878024,-0.04885377645932637,0.8935237107297402,42.81881778391877,37.92678865443867,2.8316298981947945,2.158811348037015,11700120.0,2496626688.0,1714318475264.0,-656.0,0.40220722556114197,256.0,0.1569589227437973,-15632.0,9.584303855895996,2692.0,3920.656494140625,2307.0,1690.10986328125,35109.0,411.51641845703125,2.4300365447998047
933528.7137459,1.0,0.6413612119461007,0.3368799327799975,27.742823427584362,11.832542828676688,113.65016141387207,20.853922077277502,13.197739507097603,-22.68015068146267,-40.77078626082813,13.609555246867494,-23.339987296925038,0.05067569135651343,0.027599074135750398,0.9983337445025028,0.4467167766498926,-0.049185377565670305,0.8933224054579917,42.81881778391877,37.857206474607224,2.8316298981947945,2.1549581218765566,11700440.0,2496626688.0,1714318475264.0,-640.0,0.39239731431007385,304.0,0.18638871610164642,-15616.0,9.574494361877441,2692.0,3920.656494140625,2254.0,1651.2821044921875,35109.0,411.51641845703125,2.4300365447998047
933528.7817462,1.0,0.6427877238616758,0.33889500324487254,28.296088574812664,11.735801707709676,114.76018536127602,20.853922077277502,13.197739507097603,-22.68015068146267,-40.77078626082813,13.609555246867494,-23.339987296925038,0.05427251546093505,0.026446107559131057,0.9981758850325494,0.4467167766498926,-0.049185377565670305,0.8933224054579917,42.71523261186535,37.857206474607224,2.826101042112859,2.1549581218765566,11700760.0,2496626688.0,1714318475264.0,-640.0,0.39239731431007385,272.0,0.1667688488960266,-15632.0,9.584303855895996,2691.0,3919.199951171875,2230.0,1633.6995849609375,35109.0,411.51641845703125,2.4300365447998047
933528.8485607,0.9887333512306213,0.6448844443275753,0.33803194291671657,28.178002689162057,11.61490205885913,112.5887966142024,20.853922077277502,13.197739507097603,-22.68015068146267,-40.77078626082813,13.609555246867494,-23.339987296925038,0.05427251546093505,0.026446107559131057,0.9981758850325494,0.4517553384457613,-0.05119739852299194,0.890671623310316,42.71523261186535,37.89519934790918,2.826101042112859,2.15683863117233,11701080.0,2496626688.0,1714318475264.0,-624.0,0.38258737325668335,208.0,0.12752912938594818,-15600.0,9.56468391418457,2685.0,3910.46142578125,2441.0,1788.2784423828125,35109.0,411.51641845703125,2.4300365447998047
933528.9157551,0.9887333512306213,0.648033302310421,0.34128505284025457,29.424036963415183,11.528528867493911,115.04755574292486,20.853922077277502,13.197739507097603,-22.68015068146267,-40.77078626082813,13.609555246867494,-23.339987296925038,0.06230386176558736,0.02571039655566668,0.9977260166589047,0.4517553384457613,-0.05119739852299194,0.890671623310316,43.17656780471858,37.89519934790918,2.859509189236122,2.15683863117233,11701400.0,2496626688.0,1714318475264.0,-576.0,0.35315757989883423,272.0,0.1667688488960266,-15632.0,9.584303855895996,2676.0,3897.353759765625,2518.0,1844.6885986328125,35109.0,411.51641845703125,2.4300365447998047
933528.9829829,1.0,0.6512579896047036,0.3388655097257224,29.216579175644497,11.465658999072218,111.71854566502414,20.853922077277502,13.197739507097603,-22.68015068146267,-40.77078626082813,13.609555246867494,-23.339987296925038,0.06230386176558736,0.02571039655566668,0.9977260166589047,0.45945395224908775,-0.052644530400616237,0.8866400730745208,43.17656780471858,37.770546631169225,2.859509189236122,2.1490333161631634,11701720.0,2496626944.0,1714318475264.0,-608.0,0.37277743220329285,304.0,0.18638871610164642,-15632.0,9.584303855895996,2692.0,3920.656494140625,2351.0,1722.3443603515625,35109.0,411.51641845703125,2.4300365447998047
933529.0500746,1.0,0.6541539356351921,0.3416669183874753,30.386289089336792,11.408010846459648,113.97677300072426,20.853922077277502,13.197739507097603,-22.68015068146267,-40.77078626082813,13.609555246867494,-23.339987296925038,0.06977915180542246,0.02536759962846098,0.9972398682676129,0.45945395224908775,-0.052644530400616237,0.8866400730745208,42.813177076645076,37.770546631169225,2.8377886036545594,2.1490333161631634,11702040.0,2496626944.0,1714318475264.0,-640.0,0.39239731431007385,240.0,0.1471489816904068,-15664.0,9.603923797607422,2692.0,3920.656494140625,2276.0,1667.3992919921875,35109.0,411.51641845703125,2.4300365447998047
933529.1174434,1.0,0.6563067641558009,0.340077923127417,30.23257773394093,11.366443798580157,111.7756910809422,20.853922077277502,13.197739507097603,-22.68015068146267,-40.77078626082813,13.609555246867494,-23.339987296925038,0.06977915180542246,0.02536759962846098,0.9972398682676129,0.46452333385458267,-0.05362617120694966,0.8839356911372607,42.813177076645076,37.44493348885081,2.8377886036545594,2.1304455752745435,11702360.0,2496626944.0,1714318475264.0,-608.0,0.37277743220329285,256.0,0.1569589227437973,-15648.0,9.594114303588867,2683.0,3907.548828125,2458.0,1800.7325439453125,35109.0,411.51641845703125,2.4300365447998047
933529.1847386,1.0,0.6571884429092675,0.3406758893409003,30.593639998764694,11.376498008091861,112.46181642486822,20.853922077277502,13.197739507097603,-22.68015068146267,-40.77078626082813,13.609555246867494,-23.339987296925038,0.0720781374708825,0.02565265806678775,0.9970690463718332,0.46452333385458267,-0.05362617120694966,0.8839356911372607,42.49083946608125,37.44493348885081,2.8171453354268743,2.1304455752745435,11702680.0,2496626944.0,1714318475264.0,-624.0,0.38258737325668335,304.0,0.18638871610164642,-15648.0,9.594114303588867,2693.0,3922.11279296875,2331.0,1707.6922607421875,35109.0,411.51641845703125,2.4300365447998047
933529.251685,1.0,0.6580079411664966,0.3402863693384327,30.534156090375248,11.33841654181428,111.63804174861455,20.853922077277502,13.197739507097603,-22.68015068146267,-40.77078626082813,13.609555246867494,-23.339987296925038,0.0720781374708825,0.02565265806678775,0.9970690463718332,0.46642623672942807,-0.054311849548012395,0.8828911533643871,42.49083946608125,37.37943658068259,2.8171453354268743,2.1268811191570474,11703000.0,2496626944.0,1714318475264.0,-624.0,0.38258737325668335,272.0,0.1667688488960266,-15600.0,9.56468391418457,2678.0,3900.2666015625,2472.0,1810.989013671875,35110.0,411.2684631347656,2.431501865386963
933529.3187151,1.0,0.6588589722330773,0.3398067235821157,30.888096555928286,11.461202445794331,112.30189848164159,20.853922077277502,13.197739507097603,-22.68015068146267,-40.77078626082813,13.609555246867494,-23.339987296925038,0.07433026772156502,0.027502287173022465,0.9968543702571069,0.46642623672942807,-0.054311849548012395,0.8828911533643871,42.58536271301497,37.37943658068259,2.823742918734636,2.1268811191570474,11703320.0,2496626944.0,1714318475264.0,-640.0,0.39239731431007385,240.0,0.1471489816904068,-15648.0,9.594114303588867,2685.0,3910.46142578125,2555.0,1871.794921875,35110.0,411.2684631347656,2.431501865386963
933529.3856998,1.0,0.6590923759649978,0.3396947182958596,30.87058900494866,11.450287832882601,112.06679029200187,20.853922077277502,13.197739507097603,-22.68015068146267,-40.77078626082813,13.609555246867494,-23.339987296925038,0.07433026772156502,0.027502287173022465,0.9968543702571069,0.46696700971912275,-0.05450568711005488,0.8825933049296496,42.58536271301497,37.631505263888045,2.823742918734636,2.1411093035827014,11703640.0,2496626944.0,1714318475264.0,-704.0,0.4316370189189911,272.0,0.1667688488960266,-15648.0,9.594114303588867,2666.0,3882.789794921875,2559.0,1874.7252197265625,35110.0,411.2684631347656,2.431501865386963
933529.4529796,1.0,0.6594694276776382,0.3398007158461166,31.027663240599686,11.471005850715581,112.36247365750218,20.853922077277502,13.197739507097603,-22.68015068146267,-40.77078626082813,13.609555246867494,-23.339987296925038,0.07532224691764874,0.027850037895511104,0.9967702516169387,0.46696700971912275,-0.05450568711005488,0.8825933049296496,42.411519273820765,37.631505263888045,2.81245380164022,2.1411093035827014,11703960.0,2496626944.0,1714318475264.0,-672.0,0.41201716661453247,272.0,0.1667688488960266,-15712.0,9.633354187011719,2694.0,3923.5693359375,2377.0,1741.3919677734375,35109.0,411.51641845703125,2.4300365447998047
933529.5206625,1.0,0.6597749372062178,0.3395603416599907,31.004366112964025,11.466593024185187,112.05346981812542,20.853922077277502,13.197739507097603,-22.68015068146267,-40.77078626082813,13.609555246867494,-23.339987296925038,0.07532224691764874,0.027850037895511104,0.9967702516169387,0.46767904826246604,-0.05462200451680421,0.8822090140317543,42.411519273820765,37.34255286948434,2.81245380164022,2.1248988007175145,11704280.0,2496626944.0,1714318475264.0,-656.0,0.40220722556114197,272.0,0.1667688488960266,-15648.0,9.594114303588867,2692.0,3920.656494140625,2288.0,1676.1904296875,35110.0,411.2684631347656,2.431501865386963
933529.5887205,1.0,0.6601677296588582,0.33969872801583123,31.168494045332032,11.485288093316179,112.36195497526533,20.853922077277502,13.197739507097603,-22.68015068146267,-40.77078626082813,13.609555246867494,-23.339987296925038,0.07635642010778058,0.028171697099233395,0.9966825234701735,0.46767904826246604,-0.05462200451680421,0.8822090140317543,42.70134486238317,37.34255286948434,2.831964074228743,2.1248988007175145,11704600.0,2496626944.0,1714318475264.0,-592.0,0.36296749114990234,272.0,0.1667688488960266,-15568.0,9.545063972473145,2689.0,3916.287109375,2239.0,1640.2930908203125,35109.0,411.51641845703125,2.4300365447998047
933529.655705,1.0,0.660407015578992,0.3388516296308436,31.14949069528526,11.551300826224082,112.11143794092777,20.853922077277502,13.197739507097603,-22.68015068146267,-40.77078626082813,13.609555246867494,-23.339987296925038,0.07635642010778058,0.028171697099233395,0.9966825234701735,0.46827196978516916,-0.05374893959027392,0.8819480788609037,42.70134486238317,37.38265608177679,2.831964074228743,2.127029133594883,11704920.0,2496626944.0,1714318475264.0,-640.0,0.39239731431007385,272.0,0.1667688488960266,-15600.0,9.56468391418457,2680.0,3903.179443359375,2432.0,1781.6849365234375,35110.0,411.2684631347656,2.431501865386963
933529.7225559,1.0,0.6601704742824623,0.3381585411189971,31.05247740778326,11.604940158227805,111.9262911695757,20.853922077277502,13.197739507097603,-22.68015068146267,-40.77078626082813,13.609555246867494,-23.339987296925038,0.07574827850853076,0.02888323296184632,0.9967085617956062,0.46827196978516916,-0.05374893959027392,0.8819480788609037,42.82559013182676,37.38265608177679,2.8402327967854717,2.127029133594883,11705240.0,2496626944.0,1714318475264.0,-624.0,0.38258737325668335,272.0,0.1667688488960266,-15616.0,9.574494361877441,2668.0,3885.70263671875,2499.0,1830.769287109375,35110.0,411.2684631347656,2.431501865386963
933529.7903701,1.0,0.6601631621262032,0.33885038632667075,31.053545119122482,11.532809961409907,111.94239575143574,20.853922077277502,13.197739507097603,-22.68015068146267,-40.77078626082813,13.609555246867494,-23.339987296925038,0.07574827850853076,0.02888323296184632,0.9967085617956062,0.4682174776769315,-0.05474982569298221,0.8819154438972254,42.82559013182676,37.48644389638734,2.8402327967854717,2.1332004935239506,11705560.0,2496626944.0,1714318475264.0,-576.0,0.35315757989883423,272.0,0.1667688488960266,-15616.0,9.574494361877441,2693.0,3922.11279296875,2348.0,1720.146484375,35109.0,411.51641845703125,2.4300365447998047
933529.8571919,1.0,0.6600754307336694,0.33969837535069103,31.0144923460986,11.434950504692456,111.87355171100164,20.853922077277502,13.197739507097603,-22.68015068146267,-40.77078626082813,13.609555246867494,-23.339987296925038,0.07549591384298351,0.02750603366646504,0.9967666653259186,0.4682174776769315,-0.05474982569298221,0.8819154438972254,42.77520045176725,37.48644389638734,2.8377158448105035,2.1332004935239506,11705880.0,2496626944.0,1714318475264.0,-624.0,0.38258737325668335,256.0,0.1569589227437973,-15616.0,9.574494361877441,2691.0,3919.199951171875,2279.0,1669.5970458984375,35110.0,411.2684631347656,2.431501865386963
933529.9249943,1.0,0.6597858640753987,0.3395928686123537,31.036312551505898,11.474208931218417,112.16131056144096,20.853922077277502,13.197739507097603,-22.68015068146267,-40.77078626082813,13.609555246867494,-23.339987296925038,0.07549591384298351,0.02750603366646504,0.9967666653259186,0.46756160058537377,-0.054152129126102275,0.882300230402981,42.77520045176725,37.34930615940192,2.8377158448105035,2.1254199897063906,11706200.0,2496626944.0,1714318475264.0,-624.0,0.38258737325668335,272.0,0.1667688488960266,-15616.0,9.574494361877441,2694.0,3923.5693359375,2245.0,1644.6885986328125,35109.0,411.51641845703125,2.4300365447998047
933529.9926818,1.0,0.6595476794825406,0.3379457414099345,30.941567638528753,11.629611272992246,111.9752050361901,20.853922077277502,13.197739507097603,-22.68015068146267,-40.77078626082813,13.609555246867494,-23.339987296925038,0.07490726868534343,0.029633211660114973,0.9967501060269862,0.46756160058537377,-0.054152129126102275,0.882300230402981,42.692017643904435,37.34930615940192,2.8319422801734127,2.1254199897063906,11706520.0,2496626944.0,1714318475264.0,-608.0,0.37277743220329285,256.0,0.1569589227437973,-15648.0,9.594114303588867,2676.0,3897.353759765625,2428.0,1778.754638671875,35110.0,411.2684631347656,2.431501865386963
933530.0596311,1.0,0.65963177136868,0.3373879875844791,30.93486166046508,11.680016128127589,111.88423501947587,20.853922077277502,13.197739507097603,-22.68015068146267,-40.77078626082813,13.609555246867494,-23.339987296925038,0.07490726868534343,0.029633211660114973,0.9967501060269862,0.467784290250702,-0.053465281061392374,0.8822240767036872,42.692017643904435,37.275819087152755,2.8319422801734127,2.12120562348307,11706840.0,2496626944.0,1714318475264.0,-672.0,0.41201716661453247,272.0,0.1667688488960266,-15584.0,9.554874420166016,2701.0,3933.76416015625,2333.0,1709.157470703125,35110.0,411.2684631347656,2.431501865386963
933530.1267463,1.0,0.6590284474427343,0.3371660611935815,30.68539155884859,11.651638128811925,111.41549124619837,20.853922077277502,13.197739507097603,-22.68015068146267,-40.77078626082813,13.609555246867494,-23.339987296925038,0.07332211306105856,0.029151849619182196,0.9968821582313737,0.467784290250702,-0.053465281061392374,0.8822240767036872,42.77095177428121,37.275819087152755,2.837136558037587,2.12120562348307,11707160.0,2496626944.0,1714318475264.0,-592.0,0.36296749114990234,272.0,0.1667688488960266,-15600.0,9.56468391418457,2693.0,3922.11279296875,2271.0,1663.7362060546875,35110.0,411.2684631347656,2.431501865386963
933530.194539,1.0,0.6592075398945593,0.33724164748040797,30.672430312982925,11.626119792112503,111.23957280667764,20.853922077277502,13.197739507097603,-22.68015068146267,-40.77078626082813,13.609555246867494,-23.339987296925038,0.07332211306105856,0.029151849619182196,0.9968821582313737,0.4681890615387286,-0.05385089639475722,0.8819858749509347,42.77095177428121,37.321388186727965,2.837136558037587,2.123940767196715,11707480.0,2496626944.0,1714318475264.0,-640.0,0.39239731431007385,272.0,0.1667688488960266,-15600.0,9.56468391418457,2692.0,3920.656494140625,2238.0,1639.5604248046875,35110.0,411.2684631347656,2.431501865386963
933530.2613829,1.0,0.6594811692850427,0.3365998854697516,30.787240550431683,11.717726067571768,111.45117139177772,20.853922077277502,13.197739507097603,-22.68015068146267,-40.77078626082813,13.609555246867494,-23.339987296925038,0.07405884022466844,0.03047205745895416,0.9967882131620514,0.4681890615387286,-0.05385089639475722,0.8819858749509347,42.720781365184756,37.321388186727965,2.833770514125083,2.123940767196715,11707800.0,2496626944.0,1714318475264.0,-624.0,0.38258737325668335,240.0,0.1471489816904068,-15536.0,9.525444984436035,2685.0,3910.46142578125,2441.0,1788.2784423828125,35110.0,411.2684631347656,2.431501865386963
933530.3287065,1.0,0.6598400685649739,0.3364148461303714,30.76079765779786,11.701627405603293,111.09471486851766,20.853922077277502,13.197739507097603,-22.68015068146267,-40.77078626082813,13.609555246867494,-23.339987296925038,0.07405884022466844,0.03047205745895416,0.9967882131620514,0.46901745649805177,-0.05413213391321689,0.8815284099665193,42.720781365184756,37.21944087190929,2.833770514125083,2.118276472823001,11708120.0,2496626944.0,1714318475264.0,-672.0,0.41201716661453247,272.0,0.1667688488960266,-15600.0,9.56468391418457,2685.0,3910.46142578125,2541.0,1861.5384521484375,35110.0,411.2684631347656,2.431501865386963
933530.3956802,1.0,0.6595764569968882,0.33690379012936467,30.650836752643347,11.627292460562714,110.89187706322377,20.853922077277502,13.197739507097603,-22.68015068146267,-40.77078626082813,13.609555246867494,-23.339987296925038,0.07335194253811236,0.02939227040613646,0.9968729041188038,0.46901745649805177,-0.05413213391321689,0.8815284099665193,42.65820275754753,37.21944087190929,2.829767622851071,2.118276472823001,11708440.0,2496626944.0,1714318475264.0,-624.0,0.38258737325668335,256.0,0.1569589227437973,-15568.0,9.545063972473145,2688.0,3914.830810546875,2352.0,1723.076904296875,35111.0,411.0207824707031,2.432966947555542
933530.462683,0.9991748332977295,0.6596835545824467,0.3366960486910989,30.642972448827784,11.638474690984335,110.78434785692215,20.853922077277502,13.197739507097603,-22.68015068146267,-40.77078626082813,13.609555246867494,-23.339987296925038,0.07335194253811236,0.02939227040613646,0.9968729041188038,0.469272595944622,-0.053993115586694944,0.881401142593222,42.65820275754753,37.26969427275263,2.829767622851071,2.1210831203359413,11708760.0,2496626944.0,1714318475264.0,-624.0,0.38258737325668335,240.0,0.1471489816904068,-15584.0,9.554874420166016,2700.0,3932.3076171875,2293.0,1679.853515625,35110.0,411.2684631347656,2.431501865386963
933530.5302398,0.9991748332977295,0.6596086494707254,0.33711805643764703,30.611011569154122,11.58754615006556,110.7268308374582,20.853922077277502,13.197739507097603,-22.68015068146267,-40.77078626082813,13.609555246867494,-23.339987296925038,0.07314411795173172,0.028665835558811442,0.9969093278131057,0.469272595944622,-0.053993115586694944,0.881401142593222,42.89131775998781,37.26969427275263,2.845445001292018,2.1210831203359413,11709080.0,2496626944.0,1714318475264.0,-608.0,0.37277743220329285,272.0,0.1667688488960266,-15632.0,9.584303855895996,2693.0,3922.11279296875,2253.0,1650.5494384765625,35110.0,411.2684631347656,2.431501865386963
933530.5973229,1.0,0.6595076427617734,0.3367736809052535,30.618032793380372,11.633291613320099,110.82134995714128,20.853922077277502,13.197739507097603,-22.68015068146267,-40.77078626082813,13.609555246867494,-23.339987296925038,0.07314411795173172,0.028665835558811442,0.9969093278131057,0.46906148817039717,-0.053335286942297666,0.881553553382978,42.89131775998781,37.15547189639183,2.845445001292018,2.1145451149565044,11709400.0,2496626944.0,1714318475264.0,-608.0,0.37277743220329285,256.0,0.1569589227437973,-15616.0,9.574494361877441,2683.0,3907.548828125,2447.0,1792.6739501953125,35111.0,411.0207824707031,2.432966947555542
933530.6646883,1.0,0.659663785622015,0.3368274939553757,30.68206526518008,11.640965056282297,110.9412324214483,20.853922077277502,13.197739507097603,-22.68015068146267,-40.77078626082813,13.609555246867494,-23.339987296925038,0.07355434261938743,0.028795938212228027,0.9968753947331167,0.46906148817039717,-0.053335286942297666,0.881553553382978,42.714022303868425,37.15547189639183,2.8338771641116005,2.1145451149565044,11709720.0,2496626944.0,1714318475264.0,-576.0,0.35315757989883423,256.0,0.1569589227437973,-15584.0,9.554874420166016,2682.0,3906.09228515625,2538.0,1859.3406982421875,35111.0,411.0207824707031,2.432966947555542
933530.7317081,1.0,0.6595105083656082,0.33736197282094227,30.69354758863024,11.600148917053854,111.09855957596862,20.853922077277502,13.197739507097603,-22.68015068146267,-40.77078626082813,13.609555246867494,-23.339987296925038,0.07355434261938743,0.028795938212228027,0.9968753947331167,0.4686831624305428,-0.05388085100856237,0.8817215814239202,42.714022303868425,37.443276932463476,2.8338771641116005,2.1310242317629133,11710040.0,2496626944.0,1714318475264.0,-592.0,0.36296749114990234,272.0,0.1667688488960266,-15632.0,9.584303855895996,2680.0,3903.179443359375,2571.0,1883.5164794921875,35111.0,411.0207824707031,2.432966947555542
933530.7988267,1.0,0.6586021895650547,0.33803714161969545,30.31985092335718,11.452108406397103,110.40300865613347,20.853922077277502,13.197739507097603,-22.68015068146267,-40.77078626082813,13.609555246867494,-23.339987296925038,0.07114640255119287,0.02657707402927524,0.9971117532854911,0.4686831624305428,-0.05388085100856237,0.8817215814239202,42.76092254252712,37.443276932463476,2.83701439184406,2.1310242317629133,11710360.0,2496627200.0,1714318475264.0,-624.0,0.38258737325668335,256.0,0.1569589227437973,-15696.0,9.623543739318848,2691.0,3919.199951171875,2383.0,1745.78759765625,35111.0,411.0207824707031,2.432966947555542
