timestamp,Timestamp RAW (no units)_001,Timestamp CAL (mSecs)_001,System Timestamp CAL (mSecs)_001,Wide Range Accelerometer X RAW (no units)_001,Wide Range Accelerometer X CAL (m/(sec ^2))_001,Wide Range Accelerometer Y RAW (no units)_001,Wide Range Accelerometer Y CAL (m/(sec ^2))_001,Wide Range Accelerometer Z RAW (no units)_001,Wide Range Accelerometer Z CAL (m/(sec ^2))_001,VSenseBatt RAW (no units)_001,VSenseBatt CAL (m Volts)_001,Internal ADC A13 RAW (no units)_001,Internal ADC A13 CAL (m Volts)_001,GSR RAW (no units)_001,GSR CAL (kOhms)_001,GSR Conductance CAL (u Siemens)_001,confidence_006,norm_pos_x_006,norm_pos_y_006,gaze_point_3d_x_006,gaze_point_3d_y_006,gaze_point_3d_z_006,eye_center0_3d_x_006,eye_center0_3d_y_006,eye_center0_3d_z_006,eye_center1_3d_x_006,eye_center1_3d_y_006,eye_center1_3d_z_006,gaze_normal0_x_006,gaze_normal0_y_006,gaze_normal0_z_006,gaze_normal1_x_006,gaze_normal1_y_006,gaze_normal1_z_006,diameter0_2d_006,diameter1_2d_006,diameter0_3d_006,diameter1_3d_006,confidence_001,norm_pos_x_001,norm_pos_y_001,gaze_point_3d_x_001,gaze_point_3d_y_001,gaze_point_3d_z_001,eye_center0_3d_x_001,eye_center0_3d_y_001,eye_center0_3d_z_001,eye_center1_3d_x_001,eye_center1_3d_y_001,eye_center1_3d_z_001,gaze_normal0_x_001,gaze_normal0_y_001,gaze_normal0_z_001,gaze_normal1_x_001,gaze_normal1_y_001,gaze_normal1_z_001,diameter0_2d_001,diameter1_2d_001,diameter0_3d_001,diameter1_3d_001,Timestamp RAW (no units)_006,Timestamp CAL (mSecs)_006,System Timestamp CAL (mSecs)_006,Wide Range Accelerometer X RAW (no units)_006,Wide Range Accelerometer X CAL (m/(sec ^2))_006,Wide Range Accelerometer Y RAW (no units)_006,Wide Range Accelerometer Y CAL (m/(sec ^2))_006,Wide Range Accelerometer Z RAW (no units)_006,Wide Range Accelerometer Z CAL (m/(sec ^2))_006,VSenseBatt RAW (no units)_006,VSenseBatt CAL (m Volts)_006,Internal ADC A13 RAW (no units)_006,Internal ADC A13 CAL (m Volts)_006,GSR RAW (no units)_006,GSR CAL (kOhms)_006,GSR Conductance CAL (u Siemens)_006
1104998.7001696,12551702.0,812148.4375,1711994961920.0,-528.0,0.3237277865409851,160.0,0.09809932857751846,-15632.0,9.584303855895996,2755.0,4012.41015625,2487.0,1821.97802734375,35443.0,342.5345153808594,2.9194138050079346,0.9805930256843567,0.4348709442202462,0.23712725477918362,-49.08075017892016,97.70303687904257,499.5517758363984,17.576138134421203,8.374083260980825,-28.65728060681252,-43.56086558406261,17.87635560212444,-14.916555035974358,-0.1221173200577779,0.17663253403460136,0.9766720575824935,-0.011951012415542063,0.14213978645322978,0.9897744462296821,29.185705567467153,37.1730987370522,3.749183765111761,2.6680717592871126,1.0,0.5965702880705238,0.3236783527949241,66.03050110565641,45.337684371756026,394.24670301706396,nan,nan,nan,385.7144841850535,48.6747568399948,9.810733173146552,nan,nan,nan,-0.6393679661587942,-0.006674144936477549,0.7688719396878348,nan,46.700011293634866,nan,2.0853664402466343,13382410.0,805492.1875,1711994961920.0,-176.0,0.10790925472974777,-192.0,-0.11771918833255768,-17600.0,10.790925979614258,2723.0,3965.80517578125,2362.0,1730.4029541015625,52564.0,825.151123046875,1.2118991613388062
1104998.7678134,12552022.0,812158.1875,1711994961920.0,-608.0,0.37277743220329285,112.0,0.06866952776908875,-15632.0,9.584303855895996,2764.0,4025.51806640625,2503.0,1833.6995849609375,35443.0,342.5345153808594,2.9194138050079346,0.9723487198352814,0.433064062530526,0.23805778239299846,-57.14278280614843,109.92157018660849,564.4473014899359,17.576138134421203,8.374083260980825,-28.65728060681252,-43.56086558406261,17.87635560212444,-14.916555035974358,-0.1221173200577779,0.17663253403460136,0.9766720575824935,-0.024248643523525192,0.14768798714749312,0.9887366999052836,29.185705567467153,37.209054660004874,3.749183765111761,2.667364910866513,0.08804160274585222,0.8297501192795244,0.4882431716875918,174.24246500825,-11.766763279157715,275.03215496413776,343.6548344616185,-206.82178125805842,-153.04843211900263,nan,nan,nan,-0.3388247389067371,0.39011003595780147,0.8561611741662807,nan,nan,nan,16.26585796847876,nan,0.9386894675442372,nan,13382666.0,805500.0,1711994961920.0,-160.0,0.09809932857751846,-224.0,-0.1373390555381775,-17616.0,10.800735473632812,2696.0,3926.48193359375,2255.0,1652.0146484375,52554.0,828.185302734375,1.2074592113494873
1104998.8348667,12552342.0,812168.0,1711994961920.0,-544.0,0.3335376977920532,128.0,0.07847946137189865,-15664.0,9.603923797607422,2749.0,4003.671875,2477.0,1814.6519775390625,35444.0,342.3626708984375,2.9208791255950928,0.963095635175705,0.42871834890170674,0.2373714175937165,-56.19472664572851,101.29091140847251,518.0162206293423,17.576138134421203,8.374083260980825,-28.65728060681252,-43.56086558406261,17.87635560212444,-14.916555035974358,-0.13103737602626775,0.17299988131659083,0.9761660960864169,-0.024248643523525192,0.14768798714749312,0.9887366999052836,29.031803851613404,37.209054660004874,3.7310980726594885,2.667364910866513,1.0,0.596559152108029,0.3230995893431543,66.02659950449635,45.55086982377769,394.2452499876238,nan,nan,nan,385.7144841850535,48.6747568399948,9.810733173146552,nan,nan,nan,-0.6393757693611143,-0.0062477740324341806,0.7688690336289545,nan,46.96753779591763,nan,2.096672033133431,13382922.0,805507.8125,1711994961920.0,-176.0,0.10790925472974777,-192.0,-0.11771918833255768,-17600.0,10.790925979614258,2706.0,3941.046142578125,2299.0,1684.2490234375,52557.0,827.272705078125,1.2087912559509277
1104998.9025569,12552662.0,812177.75,1711994961920.0,-560.0,0.3433476388454437,128.0,0.07847946137189865,-15648.0,9.594114303588867,2764.0,4025.51806640625,2495.0,1827.8388671875,35443.0,342.5345153808594,2.9194138050079346,0.953252762556076,0.428030713742429,0.23761317081124245,-59.577991305000694,106.15704587190103,543.4857795643077,17.576138134421203,8.374083260980825,-28.65728060681252,-43.56086558406261,17.87635560212444,-14.916555035974358,-0.13103737602626775,0.17299988131659083,0.9761660960864169,-0.02904506094122611,0.15008214972968226,0.9882467974992066,29.031803851613404,37.36105474405426,3.7310980726594885,2.6769594277452375,0.0,0.25081640017441215,1.9059137174142606,-55.398044250964574,-185.43125042151965,38.83117407263303,343.6548344616185,-206.82178125805842,-153.04843211900263,nan,nan,nan,-0.5765135804213078,0.7845060633591561,0.22843451609273918,nan,nan,nan,0.0,nan,0.004482423009290137,nan,13383178.0,805515.625,1711994961920.0,-208.0,0.12752912938594818,-240.0,-0.1471489816904068,-17520.0,10.741876602172852,2715.0,3954.15380859375,2288.0,1676.1904296875,52560.0,826.3621215820312,1.2101231813430786
1104998.9699494,12552982.0,812187.5,1711994961920.0,-608.0,0.37277743220329285,208.0,0.12752912938594818,-15616.0,9.574494361877441,2755.0,4012.41015625,2494.0,1827.106201171875,35444.0,342.3626708984375,2.9208791255950928,0.9344451725482941,0.428779001586458,0.2381015130830706,-59.816914334807514,107.54548465675774,551.9878952660656,17.576138134421203,8.374083260980825,-28.65728060681252,-43.56086558406261,17.87635560212444,-14.916555035974358,-0.12952949565166635,0.17300270822772051,0.9763668228192205,-0.02904506094122611,0.15008214972968226,0.9882467974992066,28.950521904840823,37.36105474405426,3.720048884349888,2.6769594277452375,0.9860767126083374,0.5960932971374227,0.31926807243819666,65.69833248408852,46.92805905040002,393.98076284404203,nan,nan,nan,385.7144841850535,48.6747568399948,9.810733173146552,nan,nan,nan,-0.6400323034019301,-0.0034933955791895763,0.7683400593417911,nan,46.64462523146304,nan,2.083141367130499,13383434.0,805523.4375,1711994961920.0,-144.0,0.08828939497470856,-192.0,-0.11771918833255768,-17504.0,10.73206615447998,2724.0,3967.261474609375,2334.0,1709.89013671875,52551.0,829.0999145507812,1.2061271667480469
1104999.0375268,12553302.0,812197.25,1711994961920.0,-560.0,0.3433476388454437,144.0,0.08828939497470856,-15520.0,9.515634536743164,2755.0,4012.41015625,2488.0,1822.7105712890625,35444.0,342.3626708984375,2.9208791255950928,0.9525323510169983,0.42900532766536353,0.23704924056425702,-58.94425102920036,106.8753115734833,545.737683604846,17.576138134421203,8.374083260980825,-28.65728060681252,-43.56086558406261,17.87635560212444,-14.916555035974358,-0.12952949565166635,0.17300270822772051,0.9763668228192205,-0.027742153733597646,0.15129431955059236,0.9880993886132836,28.950521904840823,37.37399852142238,3.720048884349888,2.6786409253682586,0.2056359242839719,0.8701339680725539,0.49541129738073797,217.78724106554296,-15.473940252935392,291.4100616409417,343.6548344616185,-206.82178125805842,-153.04843211900263,nan,nan,nan,-0.2517351867921512,0.3826956820102461,0.8889169875198887,nan,nan,nan,9.576449147377641,nan,0.5592614638036375,nan,13383690.0,805531.25,1711994961920.0,-160.0,0.09809932857751846,-208.0,-0.12752912938594818,-17536.0,10.751686096191406,2719.0,3959.9794921875,2336.0,1711.3553466796875,52566.0,824.5469360351562,1.2127872705459595
1104999.1046318,12553622.0,812207.0,1711994961920.0,-576.0,0.35315757989883423,160.0,0.09809932857751846,-15632.0,9.584303855895996,2765.0,4026.974365234375,2510.0,1838.827880859375,35444.0,342.3626708984375,2.9208791255950928,0.9945344030857086,0.42959740828883397,0.23819263180571937,-59.18551519180083,107.70450931454755,553.126625418312,17.576138134421203,8.374083260980825,-28.65728060681252,-43.56086558406261,17.87635560212444,-14.916555035974358,-0.12838800678591145,0.1717325903894618,0.9767417453511782,-0.027742153733597646,0.15129431955059236,0.9880993886132836,28.935764030771278,37.37399852142238,3.7179007159006137,2.6786409253682586,1.0,0.5966512924549334,0.3205175391579652,66.11860358589479,46.51460391967625,394.32836195420657,nan,nan,nan,385.7144841850535,48.6747568399948,9.810733173146552,nan,nan,nan,-0.6391917611983174,-0.0043203058406371285,0.7690352575621201,nan,46.92156854333929,nan,2.095135386561865,13383946.0,805539.0625,1711994961920.0,-144.0,0.08828939497470856,-208.0,-0.12752912938594818,-17568.0,10.771306037902832,2706.0,3941.046142578125,2294.0,1680.5860595703125,52546.0,830.6287841796875,1.2039072513580322
1104999.1719733,12553942.0,812216.8125,1711994961920.0,-560.0,0.3433476388454437,192.0,0.11771918833255768,-15552.0,9.53525447845459,2767.0,4029.88720703125,2519.0,1845.4212646484375,35444.0,342.3626708984375,2.9208791255950928,0.9945344030857086,0.42990895729832035,0.23672054579512958,-58.0049945253259,106.8087970196388,544.6003135614247,17.576138134421203,8.374083260980825,-28.65728060681252,-43.56086558406261,17.87635560212444,-14.916555035974358,-0.12838800678591145,0.1717325903894618,0.9767417453511782,-0.025957662485225776,0.1530118084785956,0.9878833869563819,28.935764030771278,37.653986140490204,3.7179007159006137,2.6990500076708854,0.0,0.25081640017441215,1.9059137174142606,-55.398044250964574,-185.43125042151965,38.83117407263303,343.6548344616185,-206.82178125805842,-153.04843211900263,nan,nan,nan,-0.5765135804213078,0.7845060633591561,0.22843451609273918,nan,nan,nan,0.0,nan,0.004482423009290137,nan,13384202.0,805546.875,1711994961920.0,-112.0,0.06866952776908875,-144.0,-0.08828939497470856,-17472.0,10.712446212768555,2712.0,3949.78466796875,2318.0,1698.16845703125,52569.0,823.642333984375,1.2141191959381104
1104999.2397401,12554262.0,812226.5625,1711994961920.0,-592.0,0.36296749114990234,176.0,0.10790925472974777,-15488.0,9.496014595031738,2765.0,4026.974365234375,2523.0,1848.3516845703125,35444.0,342.3626708984375,2.9208791255950928,0.9759827256202698,0.42900188241740145,0.23558758794970025,-57.712221491454514,105.36052879086144,534.1709477732867,17.576138134421203,8.374083260980825,-28.65728060681252,-43.56086558406261,17.87635560212444,-14.916555035974358,-0.1301784131552747,0.1726364772121594,0.9763453423272681,-0.025957662485225776,0.1530118084785956,0.9878833869563819,28.949104128924635,37.653986140490204,3.718863010556052,2.6990500076708854,1.0,0.5966309938751333,0.31674749611356756,66.13339000617935,47.909408868935245,394.3459571590861,nan,nan,nan,385.7144841850535,48.6747568399948,9.810733173146552,nan,nan,nan,-0.6391621883577484,-0.001530695942119147,0.7690704479718791,nan,46.7548554331755,nan,2.088018246306474,13384458.0,805554.6875,1711994961920.0,-176.0,0.10790925472974777,-160.0,-0.09809932857751846,-17664.0,10.83016586303711,2723.0,3965.80517578125,2312.0,1693.77294921875,52544.0,831.241943359375,1.2030192613601685
1104999.3067287,12554582.0,812236.3125,1711994961920.0,-576.0,0.35315757989883423,160.0,0.09809932857751846,-15600.0,9.56468391418457,2764.0,4025.51806640625,2516.0,1843.223388671875,35445.0,342.1910400390625,2.922344207763672,0.9758960902690887,0.42930025152988743,0.2334984891178441,-56.82493274604758,105.2394882038683,528.2020914457573,17.576138134421203,8.374083260980825,-28.65728060681252,-43.56086558406261,17.87635560212444,-14.916555035974358,-0.1301784131552747,0.1726364772121594,0.9763453423272681,-0.024432024199299456,0.15603958663878126,0.9874485928873075,28.949104128924635,37.469742169879794,3.718863010556052,2.6853128800387496,0.0791413652475567,0.8300178968403618,0.48719745713046925,174.37001581125176,-11.459935752387992,274.9426886944214,343.6548344616185,-206.82178125805842,-153.04843211900263,nan,nan,nan,-0.3385696373007336,0.39072369101134086,0.855982241626848,nan,nan,nan,18.095584984442297,nan,1.0433738557420824,nan,13384714.0,805562.5,1711994961920.0,-192.0,0.11771918833255768,-192.0,-0.11771918833255768,-17584.0,10.781115531921387,2718.0,3958.523193359375,2353.0,1723.8095703125,52571.0,823.0404052734375,1.2150071859359741
1104999.3747725,12554902.0,812246.125,1711994961920.0,-528.0,0.3237277865409851,144.0,0.08828939497470856,-15504.0,9.50582504272461,2758.0,4016.779541015625,2502.0,1832.967041015625,35445.0,342.1910400390625,2.922344207763672,0.9701121151447296,0.4280746979625828,0.23362080903819482,-56.5884640105928,102.81050463231571,516.2112754375262,17.576138134421203,8.374083260980825,-28.65728060681252,-43.56086558406261,17.87635560212444,-14.916555035974358,-0.13270611036242336,0.17107831133299947,0.9762793143685498,-0.024432024199299456,0.15603958663878126,0.9874485928873075,28.979109955357,37.469742169879794,3.7222896617948336,2.6853128800387496,0.0,0.25081640017441215,1.9059137174142606,-55.398044250964574,-185.43125042151965,38.83117407263303,343.6548344616185,-206.82178125805842,-153.04843211900263,nan,nan,nan,-0.5765135804213078,0.7845060633591561,0.22843451609273918,nan,nan,nan,0.0,nan,0.004482423009290137,nan,13384970.0,805570.3125,1711994961920.0,-160.0,0.09809932857751846,-144.0,-0.08828939497470856,-17616.0,10.800735473632812,2707.0,3942.502685546875,2284.0,1673.2601318359375,52542.0,831.85595703125,1.2021311521530151
1104999.4427613,12555222.0,812255.875,1711994961920.0,-576.0,0.35315757989883423,176.0,0.10790925472974777,-15616.0,9.574494361877441,2771.0,4035.712890625,2531.0,1854.21240234375,35445.0,342.1910400390625,2.922344207763672,0.9580796360969543,0.42825540763544384,0.23438444021837668,-55.52775271132484,100.79830363472176,507.997641001391,17.576138134421203,8.374083260980825,-28.65728060681252,-43.56086558406261,17.87635560212444,-14.916555035974358,-0.13270611036242336,0.17107831133299947,0.9762793143685498,-0.022941525704752802,0.15371504825842985,0.9878488600677974,28.979109955357,37.59588352129065,3.7222896617948336,2.6945807776209514,1.0,0.5950454028491282,0.31476943134848967,64.92793298327459,48.49775171184929,393.3416409723134,nan,nan,nan,385.7144841850535,48.6747568399948,9.810733173146552,nan,nan,nan,-0.6415731024035579,-0.000354010256291027,0.7670618155983336,nan,46.67272933763423,nan,2.084863721403547,13385226.0,805578.125,1711994961920.0,-160.0,0.09809932857751846,-176.0,-0.10790925472974777,-17552.0,10.761495590209961,2714.0,3952.697509765625,2338.0,1712.820556640625,52571.0,823.0404052734375,1.2150071859359741
1104999.5107404,12555542.0,812265.625,1711994961920.0,-544.0,0.3335376977920532,224.0,0.1373390555381775,-15664.0,9.603923797607422,2767.0,4029.88720703125,2529.0,1852.7471923828125,35444.0,342.3626708984375,2.9208791255950928,0.9798395335674286,0.4268232961285324,0.2335757696113434,-55.23201582473142,98.51239851457544,494.4185168426532,17.576138134421203,8.374083260980825,-28.65728060681252,-43.56086558406261,17.87635560212444,-14.916555035974358,-0.13558275773071476,0.17085773823621686,0.9759226142942578,-0.022941525704752802,0.15371504825842985,0.9878488600677974,29.013733583023967,37.59588352129065,3.726312903739265,2.6945807776209514,0.0,0.25081640017441215,1.9059137174142606,-55.398044250964574,-185.43125042151965,38.83117407263303,343.6548344616185,-206.82178125805842,-153.04843211900263,nan,nan,nan,-0.5765135804213078,0.7845060633591561,0.22843451609273918,nan,nan,nan,0.0,nan,0.004482423009290137,nan,13385482.0,805585.9375,1711994961920.0,-176.0,0.10790925472974777,-192.0,-0.11771918833255768,-17584.0,10.781115531921387,2724.0,3967.261474609375,2302.0,1686.4468994140625,52543.0,831.548828125,1.2025752067565918
1104999.5787573,12555862.0,812275.375,1711994961920.0,-512.0,0.3139178454875946,208.0,0.12752912938594818,-15584.0,9.554874420166016,2766.0,4028.4306640625,2530.0,1853.4798583984375,35445.0,342.1910400390625,2.922344207763672,0.9759874045848846,0.4270398321894263,0.23503838068970428,-53.8947421155923,95.77817375478898,484.1337346442416,17.576138134421203,8.374083260980825,-28.65728060681252,-43.56086558406261,17.87635560212444,-14.916555035974358,-0.13558275773071476,0.17085773823621686,0.9759226142942578,-0.020986657282249858,0.14979978372984964,0.9884935938136411,29.013733583023967,37.63197315409064,3.726312903739265,2.6971197559560185,0.9583026766777039,0.5945961569980274,0.3115192213459431,64.60860913569067,49.65768456845137,393.0731117884544,nan,nan,nan,385.7144841850535,48.6747568399948,9.810733173146552,nan,nan,nan,-0.6422117500987256,0.0019658554569131625,0.7665247572306157,nan,46.67484815030273,nan,2.085161641551464,13385738.0,805593.75,1711994961920.0,-192.0,0.11771918833255768,-224.0,-0.1373390555381775,-17568.0,10.771306037902832,2722.0,3964.3486328125,2369.0,1735.5311279296875,52570.0,823.3412475585938,1.214563250541687
1104999.6462202,12556182.0,812285.125,1711994961920.0,-576.0,0.35315757989883423,144.0,0.08828939497470856,-15680.0,9.613734245300293,2766.0,4028.4306640625,2525.0,1849.81689453125,35445.0,342.1910400390625,2.922344207763672,0.9761974811553955,0.42819770055817497,0.23494790139903854,-54.05119156220094,97.77415532398919,494.10170635604015,17.576138134421203,8.374083260980825,-28.65728060681252,-43.56086558406261,17.87635560212444,-14.916555035974358,-0.13320858320031367,0.17228132823397765,0.9759992916512295,-0.020986657282249858,0.14979978372984964,0.9884935938136411,28.85250001802995,37.63197315409064,3.705528053827263,2.6971197559560185,0.0,0.25081640017441215,1.9059137174142606,-55.398044250964574,-185.43125042151965,38.83117407263303,343.6548344616185,-206.82178125805842,-153.04843211900263,nan,nan,nan,-0.5765135804213078,0.7845060633591561,0.22843451609273918,nan,nan,nan,0.0,nan,0.004482423009290137,nan,13385994.0,805601.5625,1711994961920.0,-128.0,0.07847946137189865,-240.0,-0.1471489816904068,-17552.0,10.761495590209961,2707.0,3942.502685546875,2282.0,1671.794921875,52546.0,830.6287841796875,1.2039072513580322
1104999.7139678,12556502.0,812294.9375,1711994961920.0,-560.0,0.3433476388454437,128.0,0.07847946137189865,-15648.0,9.594114303588867,2756.0,4013.86669921875,2501.0,1832.234375,35445.0,342.1910400390625,2.922344207763672,0.9921687245368958,0.42849639705163706,0.23322897567885992,-53.173941960422155,97.40140947510386,488.1620646085388,17.576138134421203,8.374083260980825,-28.65728060681252,-43.56086558406261,17.87635560212444,-14.916555035974358,-0.13320858320031367,0.17228132823397765,0.9759992916512295,-0.01935793860470399,0.15206184373744838,0.9881813932128778,28.85250001802995,37.577315647932814,3.705528053827263,2.6927959743458625,1.0,0.5952723745420081,0.3115366679712118,65.12798666231396,49.714477312691216,393.5075100522873,nan,nan,nan,385.7144841850535,48.6747568399948,9.810733173146552,nan,nan,nan,-0.6411729950454791,0.0020794409453927763,0.7673935537582816,nan,46.543809140436274,nan,2.079721148183244,13386250.0,805609.375,1711994961920.0,-160.0,0.09809932857751846,-176.0,-0.10790925472974777,-17600.0,10.790925979614258,2712.0,3949.78466796875,2336.0,1711.3553466796875,52566.0,824.5469360351562,1.2127872705459595
1104999.7817666,12556822.0,812304.6875,1711994961920.0,-528.0,0.3237277865409851,128.0,0.07847946137189865,-15568.0,9.545063972473145,2761.0,4021.148681640625,2506.0,1835.8974609375,35446.0,342.01953125,2.92380952835083,0.9739437103271484,0.4266971531035912,0.233146564871913,-52.9490273092148,94.45341750049371,473.0557596865804,17.576138134421203,8.374083260980825,-28.65728060681252,-43.56086558406261,17.87635560212444,-14.916555035974358,-0.13687802200055416,0.17044060976011782,0.9758147394038557,-0.01935793860470399,0.15206184373744838,0.9881813932128778,29.074241057082,37.577315647932814,3.7335030295173546,2.6927959743458625,0.0,0.25081640017441215,1.9059137174142606,-55.398044250964574,-185.43125042151965,38.83117407263303,343.6548344616185,-206.82178125805842,-153.04843211900263,nan,nan,nan,-0.5765135804213078,0.7845060633591561,0.22843451609273918,nan,nan,nan,0.0,nan,0.004482423009290137,nan,13386506.0,805617.1875,1711994961920.0,-224.0,0.1373390555381775,-176.0,-0.10790925472974777,-17664.0,10.83016586303711,2724.0,3967.261474609375,2300.0,1684.981689453125,52551.0,829.0999145507812,1.2061271667480469
1104999.8496275,12557142.0,812314.4375,1711994961920.0,-528.0,0.3237277865409851,144.0,0.08828939497470856,-15520.0,9.515634536743164,2766.0,4028.4306640625,2512.0,1840.2930908203125,35445.0,342.1910400390625,2.922344207763672,0.9739437103271484,0.4264913103404343,0.2315570783907186,-54.22057308643847,97.14206584950293,482.8016294264469,17.576138134421203,8.374083260980825,-28.65728060681252,-43.56086558406261,17.87635560212444,-14.916555035974358,-0.13687802200055416,0.17044060976011782,0.9758147394038557,-0.021272234486911026,0.15618974259900037,0.9874979778950396,29.074241057082,37.12029909005561,3.7335030295173546,2.66035343452261,0.9725396037101746,0.5967035032770289,0.31270912395460915,66.22193776408182,49.413460123667704,394.41958265389087,nan,nan,nan,385.7144841850535,48.6747568399948,9.810733173146552,nan,nan,nan,-0.6389850928419434,0.0014774065673458189,0.7692176989614887,nan,46.61377739023888,nan,2.0823446643440295,13386762.0,805625.0,1711994961920.0,-240.0,0.1471489816904068,-160.0,-0.09809932857751846,-17648.0,10.820355415344238,2717.0,3957.066650390625,2353.0,1723.8095703125,52561.0,826.0590209960938,1.2105672359466553
1104999.9167261,12557462.0,812324.25,1711994961920.0,-592.0,0.36296749114990234,192.0,0.11771918833255768,-15648.0,9.594114303588867,2763.0,4024.0615234375,2520.0,1846.15380859375,35446.0,342.01953125,2.92380952835083,0.9806879162788391,0.4249669184314375,0.22965981624555687,-53.89176180795074,95.26476734382209,469.08102581386936,17.576138134421203,8.374083260980825,-28.65728060681252,-43.56086558406261,17.87635560212444,-14.916555035974358,-0.1398521594469172,0.1719387423361874,0.9751299617906755,-0.021272234486911026,0.15618974259900037,0.9874979778950396,29.08810746197541,37.12029909005561,3.7352556905995424,2.66035343452261,0.0805200805676474,0.8305543994158274,0.48633997763722003,174.78216959360086,-11.217581619567056,274.9948135281627,343.6548344616185,-206.82178125805842,-153.04843211900263,nan,nan,nan,-0.3377453297360353,0.39120839927698264,0.8560864912943306,nan,nan,nan,17.786788206471428,nan,1.025687611062592,nan,13387018.0,805632.8125,1711994961920.0,-240.0,0.1471489816904068,-176.0,-0.10790925472974777,-17568.0,10.771306037902832,2707.0,3942.502685546875,2287.0,1675.4578857421875,52557.0,827.272705078125,1.2087912559509277
1104999.9845123,12557782.0,812334.0,1711994961920.0,-592.0,0.36296749114990234,192.0,0.11771918833255768,-15632.0,9.584303855895996,2765.0,4026.974365234375,2518.0,1844.6885986328125,35446.0,342.01953125,2.92380952835083,0.9627588391304016,0.42526102978592056,0.22991901459158914,-52.601798520665454,93.2684484919555,459.8411652667444,17.576138134421203,8.374083260980825,-28.65728060681252,-43.56086558406261,17.87635560212444,-14.916555035974358,-0.1398521594469172,0.1719387423361874,0.9751299617906755,-0.019093880872909173,0.1543988352542845,0.9878240852425758,29.08810746197541,37.595751760162884,3.7352556905995424,2.6942981705577482,1.0,0.596197271215814,0.31329057697684703,65.82643259031494,49.150945111200784,394.0911095803372,nan,nan,nan,385.7144841850535,48.6747568399948,9.810733173146552,nan,nan,nan,-0.6397761031894772,0.0009523765424119317,0.7685607528143815,nan,46.460091506477006,nan,2.076115934167472,13387274.0,805640.625,1711994961920.0,-208.0,0.12752912938594818,-96.0,-0.05885959416627884,-17616.0,10.800735473632812,2715.0,3954.15380859375,2331.0,1707.6922607421875,52554.0,828.185302734375,1.2074592113494873
1105000.0523518,12558102.0,812343.75,1711994961920.0,-528.0,0.3237277865409851,144.0,0.08828939497470856,-15648.0,9.594114303588867,2749.0,4003.671875,2488.0,1822.7105712890625,35446.0,342.01953125,2.92380952835083,0.9740175604820251,0.4274445383366407,0.23074691784825707,-52.90076207657346,96.48356713941519,477.7521171373576,17.576138134421203,8.374083260980825,-28.65728060681252,-43.56086558406261,17.87635560212444,-14.916555035974358,-0.13546211756388907,0.17295747387107924,0.9755694372709931,-0.019093880872909173,0.1543988352542845,0.9878240852425758,28.92323055206219,37.595751760162884,3.714621564842199,2.6942981705577482,1.0,0.5930288458491726,0.31183821732818684,63.40656829868669,49.393725355470195,392.06338580130074,nan,nan,nan,385.7144841850535,48.6747568399948,9.810733173146552,nan,nan,nan,-0.6446158317727336,0.0014379370309508316,0.7645053052563084,nan,46.23423669938782,nan,2.066325385859137,13387530.0,805648.4375,1711994961920.0,-192.0,0.11771918833255768,-128.0,-0.07847946137189865,-17680.0,10.839975357055664,2718.0,3958.523193359375,2316.0,1696.7032470703125,52563.0,825.4535522460938,1.211455225944519
1105000.1194703,12558422.0,812353.5,1711994961920.0,-560.0,0.3433476388454437,144.0,0.08828939497470856,-15648.0,9.594114303588867,2756.0,4013.86669921875,2484.0,1819.7802734375,35447.0,341.8482360839844,2.925274610519409,0.9660503566265106,0.42816470449469124,0.23018769650395987,-50.10901762161096,92.62106255845669,457.4604671638087,17.576138134421203,8.374083260980825,-28.65728060681252,-43.56086558406261,17.87635560212444,-14.916555035974358,-0.13546211756388907,0.17295747387107924,0.9755694372709931,-0.014145272216640012,0.1524877696926237,0.9882041243427829,28.92323055206219,37.62907591538342,3.714621564842199,2.6967173446823063,0.0,0.25081640017441215,1.9059137174142606,-55.398044250964574,-185.43125042151965,38.83117407263303,343.6548344616185,-206.82178125805842,-153.04843211900263,nan,nan,nan,-0.5765135804213078,0.7845060633591561,0.22843451609273918,nan,nan,nan,0.0,nan,0.004482423009290137,nan,13387786.0,805656.25,1711994961920.0,-176.0,0.10790925472974777,-160.0,-0.09809932857751846,-17664.0,10.83016586303711,2717.0,3957.066650390625,2325.0,1703.2967529296875,52549.0,829.7108154296875,1.205239176750183
1105000.1871604,12558742.0,812363.25,1711994961920.0,-528.0,0.3237277865409851,176.0,0.10790925472974777,-15616.0,9.574494361877441,2766.0,4028.4306640625,2502.0,1832.967041015625,35446.0,342.01953125,2.92380952835083,0.9162024259567261,0.42846935647086565,0.2294611557857359,-50.08959167622304,93.322135313047,459.3568408206577,17.576138134421203,8.374083260980825,-28.65728060681252,-43.56086558406261,17.87635560212444,-14.916555035974358,-0.13479093338603093,0.1745075609362581,0.9753863416375076,-0.014145272216640012,0.1524877696926237,0.9882041243427829,29.150688590424846,37.62907591538342,3.7439438006468087,2.6967173446823063,1.0,0.5932478746534307,0.3132158967420984,63.563158432642865,48.90628751583883,392.19597047907376,nan,nan,nan,385.7144841850535,48.6747568399948,9.810733173146552,nan,nan,nan,-0.6443026515048214,0.00046306135168809766,0.7647704746118544,nan,46.29456176417818,nan,2.0694349191475205,13388042.0,805664.0625,1711994961920.0,-176.0,0.10790925472974777,-160.0,-0.09809932857751846,-17648.0,10.820355415344238,2712.0,3949.78466796875,2321.0,1700.3663330078125,52567.0,824.2451782226562,1.2132312059402466
1105000.2541686,12559062.0,812373.0625,1711994961920.0,-560.0,0.3433476388454437,192.0,0.11771918833255768,-15680.0,9.613734245300293,2764.0,4025.51806640625,2510.0,1838.827880859375,35447.0,341.8482360839844,2.925274610519409,0.9414708316326141,0.4290794248097778,0.22944303419613765,-47.80455947864388,89.9023737948923,442.53045286847725,17.576138134421203,8.374083260980825,-28.65728060681252,-43.56086558406261,17.87635560212444,-14.916555035974358,-0.13479093338603093,0.1745075609362581,0.9753863416375076,-0.009835655947624332,0.14993890451515107,0.9886463395900864,29.150688590424846,37.81186119930879,3.7439438006468087,2.7094116693118253,0.3608115969464184,0.8678394561928175,0.4387320434180926,206.84668906086188,2.899676529213764,279.7337781156452,343.6548344616185,-206.82178125805842,-153.04843211900263,nan,nan,nan,-0.27361629080151334,0.41944291557454433,0.8655644204692956,nan,nan,nan,6.680953359318374,nan,0.38661947867941926,nan,13388298.0,805671.875,1711994961920.0,-160.0,0.09809932857751846,-128.0,-0.07847946137189865,-17648.0,10.820355415344238,2711.0,3948.328125,2293.0,1679.853515625,52545.0,830.9352416992188,1.2034631967544556
1105000.3218575,12559382.0,812382.8125,1711994961920.0,-528.0,0.3237277865409851,128.0,0.07847946137189865,-15696.0,9.623543739318848,2764.0,4025.51806640625,2506.0,1835.8974609375,35446.0,342.01953125,2.92380952835083,0.9786445200443268,0.42926847238430044,0.23027871551968515,-47.85325478504059,89.90969954015983,444.3426614406603,17.576138134421203,8.374083260980825,-28.65728060681252,-43.56086558406261,17.87635560212444,-14.916555035974358,-0.13446436950911314,0.17332034485181494,0.9756430655690453,-0.009835655947624332,0.14993890451515107,0.9886463395900864,29.25031042705385,37.81186119930879,3.756700134931097,2.7094116693118253,1.0,0.5942125707962433,0.31482204829269633,64.28857986625962,48.402335820229766,392.8059208970049,nan,nan,nan,385.7144841850535,48.6747568399948,9.810733173146552,nan,nan,nan,-0.6428518086375878,-0.0005448420395300653,0.7659903754477165,nan,46.24367501220938,nan,2.0670022712600655,13388554.0,805679.6875,1711994961920.0,-192.0,0.11771918833255768,-144.0,-0.08828939497470856,-17600.0,10.790925979614258,2694.0,3923.5693359375,2285.0,1673.99267578125,52572.0,822.73974609375,1.2154512405395508
1105000.3894418,12559702.0,812392.5625,1711994961920.0,-560.0,0.3433476388454437,160.0,0.09809932857751846,-15632.0,9.584303855895996,2764.0,4025.51806640625,2511.0,1839.5604248046875,35447.0,341.8482360839844,2.925274610519409,0.9792723953723907,0.4292418347605504,0.2315791903599732,-47.68370969130952,89.01999030351567,442.6854367986669,17.576138134421203,8.374083260980825,-28.65728060681252,-43.56086558406261,17.87635560212444,-14.916555035974358,-0.13446436950911314,0.17332034485181494,0.9756430655690453,-0.009653732430267379,0.1473907135857752,0.9890312345921339,29.25031042705385,37.69448222998779,3.756700134931097,2.7010418638054396,0.0,0.25081640017441215,1.9059137174142606,-55.398044250964574,-185.43125042151965,38.83117407263303,343.6548344616185,-206.82178125805842,-153.04843211900263,nan,nan,nan,-0.5765135804213078,0.7845060633591561,0.22843451609273918,nan,nan,nan,0.0,nan,0.004482423009290137,nan,13388810.0,805687.5,1711994961920.0,-240.0,0.1471489816904068,-208.0,-0.12752912938594818,-17648.0,10.820355415344238,2721.0,3962.892333984375,2284.0,1673.2601318359375,52544.0,831.241943359375,1.2030192613601685
1105000.4565983,12560022.0,812402.375,1711994961920.0,-544.0,0.3335376977920532,208.0,0.12752912938594818,-15616.0,9.574494361877441,2751.0,4006.584716796875,2490.0,1824.17578125,35448.0,341.6770935058594,2.9267399311065674,0.9741774201393127,0.4276053141578087,0.23183247322420297,-47.651042097580884,86.68251413320655,431.4676935664991,17.576138134421203,8.374083260980825,-28.65728060681252,-43.56086558406261,17.87635560212444,-14.916555035974358,-0.13780523477228365,0.17110324106666883,0.9755682437255925,-0.009653732430267379,0.1473907135857752,0.9890312345921339,29.46282752573274,37.69448222998779,3.7835744130240476,2.7010418638054396,0.0,0.25081640017441215,1.9059137174142606,-55.398044250964574,-185.43125042151965,38.83117407263303,343.6548344616185,-206.82178125805842,-153.04843211900263,nan,nan,nan,-0.5765135804213078,0.7845060633591561,0.22843451609273918,nan,nan,nan,0.0,nan,0.004482423009290137,nan,13389066.0,805695.3125,1711994961920.0,-192.0,0.11771918833255768,-176.0,-0.10790925472974777,-17552.0,10.761495590209961,2703.0,3936.677001953125,2315.0,1695.970703125,52571.0,823.0404052734375,1.2150071859359741
1105000.5239555,12560342.0,812412.125,1711994961920.0,-624.0,0.38258737325668335,208.0,0.12752912938594818,-15632.0,9.584303855895996,2763.0,4024.0615234375,2504.0,1834.4322509765625,35448.0,341.6770935058594,2.9267399311065674,0.960424154996872,0.4273803750813883,0.2327303896989551,-48.27214444082419,87.15493573454653,435.6784417040052,17.576138134421203,8.374083260980825,-28.65728060681252,-43.56086558406261,17.87635560212444,-14.916555035974358,-0.13780523477228365,0.17110324106666883,0.9755682437255925,-0.010993111996708004,0.14650901662825355,0.9891482495234222,29.46282752573274,37.72781318596604,3.7835744130240476,2.7033928864995036,1.0,0.5920280002160601,0.3129402580191206,62.63547391466636,48.8952942250813,391.41249481212117,nan,nan,nan,385.7144841850535,48.6747568399948,9.810733173146552,nan,nan,nan,-0.6461580205407743,0.0004410747701730584,0.7632035232779493,nan,45.90346377984886,nan,2.0525901628544725,13389322.0,805703.125,1711994961920.0,-192.0,0.11771918833255768,-160.0,-0.09809932857751846,-17520.0,10.741876602172852,2703.0,3936.677001953125,2254.0,1651.2821044921875,52544.0,831.241943359375,1.2030192613601685
1105000.5916775,12560662.0,812421.875,1711994961920.0,-560.0,0.3433476388454437,256.0,0.1569589227437973,-15664.0,9.603923797607422,2765.0,4026.974365234375,2517.0,1843.9560546875,35448.0,341.6770935058594,2.9267399311065674,0.9768738448619843,0.4259338476610249,0.23514704640504713,-48.34201833792672,84.48220313323412,427.1805117210817,17.576138134421203,8.374083260980825,-28.65728060681252,-43.56086558406261,17.87635560212444,-14.916555035974358,-0.1409050578317613,0.1654925490728483,0.9760932234570624,-0.010993111996708004,0.14650901662825355,0.9891482495234222,29.485496450129745,37.72781318596604,3.785683308367272,2.7033928864995036,0.9497131705284119,0.5917904331278028,0.3088672169935309,62.48579856479017,50.37121945194484,391.2820149320794,nan,nan,nan,385.7144841850535,48.6747568399948,9.810733173146552,nan,nan,nan,-0.6464573712405267,0.003392925223900166,0.7629425635178657,nan,45.76152013608329,nan,2.0465300905667183,13389578.0,805710.9375,1711994961920.0,-160.0,0.09809932857751846,-192.0,-0.11771918833255768,-17584.0,10.781115531921387,2695.0,3925.025634765625,2287.0,1675.4578857421875,52572.0,822.73974609375,1.2154512405395508
1105000.6587507,12560982.0,812431.625,1711994961920.0,-544.0,0.3335376977920532,224.0,0.1373390555381775,-15664.0,9.603923797607422,2765.0,4026.974365234375,2515.0,1842.4908447265625,35448.0,341.6770935058594,2.9267399311065674,0.990627110004425,0.42567508918087266,0.2374615996865247,-48.79434724506161,84.0290474330017,429.7059655536517,17.576138134421203,8.374083260980825,-28.65728060681252,-43.56086558406261,17.87635560212444,-14.916555035974358,-0.1409050578317613,0.1654925490728483,0.9760932234570624,-0.01216502047999548,0.14287284469921052,0.9896662884650949,29.485496450129745,37.75814174140499,3.785683308367272,2.7054745083698126,0.9710361957550049,0.5918241384146385,0.30707126083894387,62.52505539904428,51.03535299385882,391.3117432724271,nan,nan,nan,385.7144841850535,48.6747568399948,9.810733173146552,nan,nan,nan,-0.6463788575720185,0.004721192307727988,0.763002020198561,nan,46.028421519553085,nan,2.057927876782022,13389834.0,805718.75,1711994961920.0,-160.0,0.09809932857751846,-128.0,-0.07847946137189865,-17584.0,10.781115531921387,2719.0,3959.9794921875,2272.0,1664.4688720703125,52545.0,830.9352416992188,1.2034631967544556
1105000.7259114,12561302.0,812441.375,1711994961920.0,-512.0,0.3139178454875946,240.0,0.1471489816904068,-15600.0,9.56468391418457,2765.0,4026.974365234375,2522.0,1847.6190185546875,35448.0,341.6770935058594,2.9267399311065674,1.0,0.42418675278704754,0.23779659694707478,-48.74743714242766,82.04165352360532,420.1253621728525,17.576138134421203,8.374083260980825,-28.65728060681252,-43.56086558406261,17.87635560212444,-14.916555035974358,-0.1439351888001047,0.16331569778715788,0.9760177479335976,-0.01216502047999548,0.14287284469921052,0.9896662884650949,29.394171595814043,37.75814174140499,3.7729951732138347,2.7054745083698126,1.0,0.5955524959049114,0.30954542252529493,65.35933434681914,50.47819984191169,393.6978592472846,nan,nan,nan,385.7144841850535,48.6747568399948,9.810733173146552,nan,nan,nan,-0.6407102996764688,0.003606886003833773,0.7677742521482762,nan,45.849655156453565,nan,2.0521783845339923,13390090.0,805726.5625,1711994961920.0,-224.0,0.1373390555381775,-144.0,-0.08828939497470856,-17664.0,10.83016586303711,2705.0,3939.58984375,2320.0,1699.6336669921875,52568.0,823.9436645507812,1.2136752605438232
1105000.7939354,12561622.0,812451.1875,1711994961920.0,-528.0,0.3237277865409851,208.0,0.12752912938594818,-15664.0,9.603923797607422,2748.0,4002.21533203125,2480.0,1816.849853515625,35448.0,341.6770935058594,2.9267399311065674,0.9982195198535919,0.4238325916024352,0.23764801781024114,-50.06249187123909,83.89208697505805,429.2603148460711,17.576138134421203,8.374083260980825,-28.65728060681252,-43.56086558406261,17.87635560212444,-14.916555035974358,-0.1439351888001047,0.16331569778715788,0.9760177479335976,-0.014758326275345988,0.14469530966531965,0.9893661906323703,29.394171595814043,37.616947765481356,3.7729951732138347,2.6954472040190294,0.9904811382293701,0.5939837903063097,0.30590548731805156,64.18285055250598,51.67440145681917,392.70551076322795,nan,nan,nan,385.7144841850535,48.6747568399948,9.810733173146552,nan,nan,nan,-0.6430632672650951,0.005999289233648815,0.7657895551801629,nan,45.7358070579065,nan,2.0473682765395185,13390346.0,805734.375,1711994961920.0,-240.0,0.1471489816904068,-112.0,-0.06866952776908875,-17664.0,10.83016586303711,2711.0,3948.328125,2267.0,1660.805908203125,52548.0,830.0166015625,1.204795241355896
1105000.8604809,12561942.0,812460.9375,1711994961920.0,-560.0,0.3433476388454437,160.0,0.09809932857751846,-15616.0,9.574494361877441,2773.0,4038.625732421875,2518.0,1844.6885986328125,35449.0,341.5061340332031,2.9282050132751465,0.9934277832508087,0.4217338513370015,0.23868787817509518,-49.988478509275005,80.95139214532352,416.18480140840785,17.576138134421203,8.374083260980825,-28.65728060681252,-43.56086558406261,17.87635560212444,-14.916555035974358,-0.14823888247543,0.15930365724232937,0.9760366686306687,-0.014758326275345988,0.14469530966531965,0.9893661906323703,29.5831302494719,37.616947765481356,3.7962920543225263,2.6954472040190294,0.9930290579795837,0.59312968913119,0.3029667969405615,63.55185467352567,52.67631418680773,392.1655784216646,nan,nan,nan,385.7144841850535,48.6747568399948,9.810733173146552,nan,nan,nan,-0.6443252590230557,0.008003114693625838,0.764709690497036,nan,45.57146589830604,nan,2.0409920931141365,13390602.0,805742.1875,1711994961920.0,-144.0,0.08828939497470856,-192.0,-0.11771918833255768,-17552.0,10.761495590209961,2721.0,3962.892333984375,2351.0,1722.3443603515625,52564.0,825.151123046875,1.2118991613388062
1105000.9277107,12562262.0,812470.6875,1711994961920.0,-592.0,0.36296749114990234,144.0,0.08828939497470856,-15600.0,9.56468391418457,2765.0,4026.974365234375,2522.0,1847.6190185546875,35449.0,341.5061340332031,2.9282050132751465,0.9903809130191803,0.42156873201398326,0.23884634739907795,-50.55758623758435,81.62593341611498,419.9689030403657,17.576138134421203,8.374083260980825,-28.65728060681252,-43.56086558406261,17.87635560212444,-14.916555035974358,-0.14823888247543,0.15930365724232937,0.9760366686306687,-0.01590882962685098,0.14508342562454846,0.9892915185873928,29.5831302494719,37.58518549395384,3.7962920543225263,2.693678937396031,0.982995331287384,0.5935802762698495,0.3020056185732777,63.90394096010658,53.07637485691613,392.45756777144504,nan,nan,nan,385.7144841850535,48.6747568399948,9.810733173146552,nan,nan,nan,-0.643621086449894,0.008803236033842704,0.7652936691965969,nan,45.86655289651943,nan,2.0536502273975907,13390858.0,805750.0,1711994961920.0,-144.0,0.08828939497470856,-176.0,-0.10790925472974777,-17600.0,10.790925979614258,2717.0,3957.066650390625,2300.0,1684.981689453125,52554.0,828.185302734375,1.2074592113494873
1105000.9958103,12562582.0,812480.5,1711994961920.0,-560.0,0.3433476388454437,176.0,0.10790925472974777,-15664.0,9.603923797607422,2754.0,4010.953857421875,2495.0,1827.8388671875,35449.0,341.5061340332031,2.9282050132751465,0.9723213016986847,0.41958364747499405,0.23994825968366262,-50.48243390049482,78.92829762967526,408.1631412675831,17.576138134421203,8.374083260980825,-28.65728060681252,-43.56086558406261,17.87635560212444,-14.916555035974358,-0.15230415150605014,0.15531916213945687,0.9760529715677932,-0.01590882962685098,0.14508342562454846,0.9892915185873928,29.533706012695134,37.58518549395384,3.7881736985562577,2.693678937396031,0.9740027189254761,0.5954430566333417,0.30239113627413416,65.33155495911058,53.119775251175014,393.65317542247453,nan,nan,nan,385.7144841850535,48.6747568399948,9.810733173146552,nan,nan,nan,-0.6407658584518858,0.008890036822360363,0.7676848844986559,nan,45.58190215270519,nan,2.0412132587130727,13391114.0,805757.8125,1711994961920.0,-144.0,0.08828939497470856,-160.0,-0.09809932857751846,-17616.0,10.800735473632812,2705.0,3939.58984375,2320.0,1699.6336669921875,52557.0,827.272705078125,1.2087912559509277
1105001.0627904,12562902.0,812490.25,1711994961920.0,-544.0,0.3335376977920532,192.0,0.11771918833255768,-15568.0,9.545063972473145,2764.0,4025.51806640625,2507.0,1836.6300048828125,35450.0,341.3353271484375,2.9296703338623047,0.962317705154419,0.4194975138836985,0.23850758948939743,-51.09750438918349,80.35050073472297,412.55624062785967,17.576138134421203,8.374083260980825,-28.65728060681252,-43.56086558406261,17.87635560212444,-14.916555035974358,-0.15230415150605014,0.15531916213945687,0.9760529715677932,-0.01697277329711239,0.14840580583943563,0.9887808866274431,29.533706012695134,37.59268780901118,3.7881736985562577,2.694755204089865,0.994342029094696,0.5956807128685215,0.29917327650984304,65.54008389167439,54.33824979213897,393.81109547031406,nan,nan,nan,385.7144841850535,48.6747568399948,9.810733173146552,nan,nan,nan,-0.6403488005867584,0.011326985904288368,0.7680007245943351,nan,45.651970986719164,nan,2.043969859692948,13391370.0,805765.625,1711994961920.0,-208.0,0.12752912938594818,-192.0,-0.11771918833255768,-17584.0,10.781115531921387,2712.0,3949.78466796875,2284.0,1673.2601318359375,52560.0,826.3621215820312,1.2101231813430786
1105001.130672,12563222.0,812500.0,1711994961920.0,-496.0,0.3041079044342041,144.0,0.08828939497470856,-15632.0,9.584303855895996,2751.0,4006.584716796875,2485.0,1820.5128173828125,35450.0,341.3353271484375,2.9296703338623047,0.953213632106781,0.4188821145353668,0.23952567713517237,-51.10557180612865,79.3223617051936,409.2868412296677,17.576138134421203,8.374083260980825,-28.65728060681252,-43.56086558406261,17.87635560212444,-14.916555035974358,-0.1536109705797485,0.1529578016047416,0.976221071605091,-0.01697277329711239,0.14840580583943563,0.9887808866274431,29.331972785437973,37.59268780901118,3.761535689287274,2.694755204089865,0.83054490837572,0.5881826417274112,0.35341823687421114,15.443707731452104,8.791998184643369,100.92774350036848,21.746280150462578,6.996999373560479,-29.75945677029946,-41.11507987594605,8.17163529832223,-30.18429137041239,-0.048095349375695505,0.01745670078346341,0.9986901926854925,0.39601827939830037,0.0006055263315700181,0.9182424275322238,45.47571347636667,45.520056437885394,2.3735131943723693,2.0386926816364603,13391626.0,805773.4375,1711994961920.0,-224.0,0.1373390555381775,-176.0,-0.10790925472974777,-17600.0,10.790925979614258,2721.0,3962.892333984375,2331.0,1707.6922607421875,52551.0,829.0999145507812,1.2061271667480469
1105001.1987627,12563542.0,812509.75,1711994961920.0,-544.0,0.3335376977920532,208.0,0.12752912938594818,-15600.0,9.56468391418457,2757.0,4015.322998046875,2490.0,1824.17578125,35451.0,341.1647033691406,2.931135416030884,0.9582121074199677,0.4191442991158871,0.2405347270001581,-49.95734452837628,77.43341398252701,401.56959593624606,17.576138134421203,8.374083260980825,-28.65728060681252,-43.56086558406261,17.87635560212444,-14.916555035974358,-0.1536109705797485,0.1529578016047416,0.976221071605091,-0.01474879935142829,0.1452022642653856,0.9892920576704821,29.331972785437973,37.671828025055234,3.761535689287274,2.699585058091475,0.8429687515210905,0.5890229882226632,0.3527583837133321,15.477747641570723,8.793868538694024,100.22627434512432,21.746280150462578,6.996999373560479,-29.75945677029946,-41.11507987594605,8.17163529832223,-30.18429137041239,-0.048095349375695505,0.01745670078346341,0.9986901926854925,0.39801553117883126,0.0007263325113252228,0.9173783894236422,45.47571347636667,45.80034245879235,2.3735131943723693,2.0505137242708846,13391882.0,805781.25,1711994961920.0,-208.0,0.12752912938594818,-192.0,-0.11771918833255768,-17520.0,10.741876602172852,2719.0,3959.9794921875,2333.0,1709.157470703125,52566.0,824.5469360351562,1.2127872705459595
1105001.2657817,12563862.0,812519.5,1711994961920.0,-528.0,0.3237277865409851,208.0,0.12752912938594818,-15584.0,9.554874420166016,2766.0,4028.4306640625,2508.0,1837.3626708984375,35451.0,341.1647033691406,2.931135416030884,0.9901675283908844,0.41760046573704807,0.24265407521940163,-49.97797180447162,75.13596943298117,393.69523846436215,17.576138134421203,8.374083260980825,-28.65728060681252,-43.56086558406261,17.87635560212444,-14.916555035974358,-0.15684849441372964,0.14777090552883712,0.9765051506670784,-0.01474879935142829,0.1452022642653856,0.9892920576704821,29.52738568022691,37.671828025055234,3.7864360760767544,2.699585058091475,0.8397821381997862,0.5900975312639256,0.3518733517196301,15.520690382918485,8.8000426274274,99.34277884588036,21.746280150462578,6.996999373560479,-29.75945677029946,-41.11507987594605,8.17163529832223,-30.18429137041239,-0.048095349375695505,0.01745670078346341,0.9986901926854925,0.40055462196966507,0.0009367784556773034,0.9162724034177083,45.47571347636667,45.64833203235844,2.3735131943723693,2.043891374985393,13392138.0,805789.0625,1711994961920.0,-208.0,0.12752912938594818,-192.0,-0.11771918833255768,-17584.0,10.781115531921387,2711.0,3948.328125,2310.0,1692.3077392578125,52546.0,830.6287841796875,1.2039072513580322
1105001.3336834,12564182.0,812529.3125,1711994961920.0,-560.0,0.3433476388454437,176.0,0.10790925472974777,-15616.0,9.574494361877441,2757.0,4015.322998046875,2496.0,1828.5714111328125,35450.0,341.3353271484375,2.9296703338623047,0.9812737107276917,0.41794709671003377,0.24169106313433164,-48.98228099162625,74.31904032255161,387.5627156934394,17.576138134421203,8.374083260980825,-28.65728060681252,-43.56086558406261,17.87635560212444,-14.916555035974358,-0.15684849441372964,0.14777090552883712,0.9765051506670784,-0.012493482353993234,0.14565802927408927,0.9892561101184361,29.52738568022691,37.754247311199975,3.7864360760767544,2.7056113160987234,0.0,0.25081640017441215,1.9059137174142606,-55.398044250964574,-185.43125042151965,38.83117407263303,343.6548344616185,-206.82178125805842,-153.04843211900263,nan,nan,nan,-0.5765135804213078,0.7845060633591561,0.22843451609273918,nan,nan,nan,0.0,nan,0.004482423009290137,nan,13392394.0,805796.875,1711994961920.0,-224.0,0.1373390555381775,-160.0,-0.09809932857751846,-17520.0,10.741876602172852,2711.0,3948.328125,2329.0,1706.22705078125,52569.0,823.642333984375,1.2141191959381104
1105001.4016971,12564502.0,812539.0625,1711994961920.0,-560.0,0.3433476388454437,208.0,0.12752912938594818,-15616.0,9.574494361877441,2749.0,4003.671875,2479.0,1816.1171875,35451.0,341.1647033691406,2.931135416030884,0.9767046272754669,0.41653456093866714,0.2430813749591495,-48.992193642905576,72.49643055403881,380.6038846011637,17.576138134421203,8.374083260980825,-28.65728060681252,-43.56086558406261,17.87635560212444,-14.916555035974358,-0.15976028080662186,0.14394524258583435,0.9766045360397906,-0.012493482353993234,0.14565802927408927,0.9892561101184361,29.36032016227515,37.754247311199975,3.7636248515167283,2.7056113160987234,0.0,0.25081640017441215,1.9059137174142606,-55.398044250964574,-185.43125042151965,38.83117407263303,343.6548344616185,-206.82178125805842,-153.04843211900263,nan,nan,nan,-0.5765135804213078,0.7845060633591561,0.22843451609273918,nan,nan,nan,0.0,nan,0.004482423009290137,nan,13392650.0,805804.6875,1711994961920.0,-208.0,0.12752912938594818,-144.0,-0.08828939497470856,-17536.0,10.751686096191406,2718.0,3958.523193359375,2302.0,1686.4468994140625,52544.0,831.241943359375,1.2030192613601685
1105001.4693137,12564822.0,812548.8125,1711994961920.0,-560.0,0.3433476388454437,144.0,0.08828939497470856,-15616.0,9.574494361877441,2760.0,4019.6923828125,2484.0,1819.7802734375,35451.0,341.1647033691406,2.931135416030884,0.9954309165477753,0.41648083732352414,0.2432698270818946,-49.135108951756024,72.5910880432873,381.4591524435215,17.576138134421203,8.374083260980825,-28.65728060681252,-43.56086558406261,17.87635560212444,-14.916555035974358,-0.15976028080662186,0.14394524258583435,0.9766045360397906,-0.012832528669762311,0.14550853804613753,0.9892737697743813,29.36032016227515,37.65471163964025,3.7636248515167283,2.6986287196787213,0.0,0.25081640017441215,1.9059137174142606,-55.398044250964574,-185.43125042151965,38.83117407263303,343.6548344616185,-206.82178125805842,-153.04843211900263,nan,nan,nan,-0.5765135804213078,0.7845060633591561,0.22843451609273918,nan,nan,nan,0.0,nan,0.004482423009290137,nan,13392906.0,805812.5,1711994961920.0,-208.0,0.12752912938594818,-144.0,-0.08828939497470856,-17584.0,10.781115531921387,2717.0,3957.066650390625,2348.0,1720.146484375,52572.0,822.73974609375,1.2154512405395508
1105001.537256,12565142.0,812558.625,1711994961920.0,-560.0,0.3433476388454437,192.0,0.11771918833255768,-15568.0,9.545063972473145,2751.0,4006.584716796875,2481.0,1817.5823974609375,35452.0,340.9942626953125,2.932600736618042,0.9669635593891144,0.4164499834627894,0.24357070782161516,-49.148364883051684,72.47537441122704,381.42771748789187,17.576138134421203,8.374083260980825,-28.65728060681252,-43.56086558406261,17.87635560212444,-14.916555035974358,-0.15984357580186342,0.14341286168457396,0.9766692287454924,-0.012832528669762311,0.14550853804613753,0.9892737697743813,29.47906363717724,37.65471163964025,3.778158559298704,2.6986287196787213,0.0,0.25081640017441215,1.9059137174142606,-55.398044250964574,-185.43125042151965,38.83117407263303,343.6548344616185,-206.82178125805842,-153.04843211900263,nan,nan,nan,-0.5765135804213078,0.7845060633591561,0.22843451609273918,nan,nan,nan,0.0,nan,0.004482423009290137,nan,13393162.0,805820.3125,1711994961920.0,-160.0,0.09809932857751846,-160.0,-0.09809932857751846,-17536.0,10.751686096191406,2711.0,3948.328125,2290.0,1677.6556396484375,52543.0,831.548828125,1.2025752067565918
1105001.6041576,12565462.0,812568.375,1711994961920.0,-544.0,0.3335376977920532,160.0,0.09809932857751846,-15568.0,9.545063972473145,2764.0,4025.51806640625,2494.0,1827.106201171875,35452.0,340.9942626953125,2.932600736618042,0.9299401044845581,0.416004558103361,0.2447104388920096,-50.442982351086165,73.55044357757349,389.2925526293031,17.576138134421203,8.374083260980825,-28.65728060681252,-43.56086558406261,17.87635560212444,-14.916555035974358,-0.15984357580186342,0.14341286168457396,0.9766692287454924,-0.01577581874020438,0.14513064501610162,0.9892867225533185,29.47906363717724,37.88978773505769,3.778158559298704,2.7154160582999545,0.0,0.25081640017441215,1.9059137174142606,-55.398044250964574,-185.43125042151965,38.83117407263303,343.6548344616185,-206.82178125805842,-153.04843211900263,nan,nan,nan,-0.5765135804213078,0.7845060633591561,0.22843451609273918,nan,nan,nan,0.0,nan,0.004482423009290137,nan,13393418.0,805828.125,1711994961920.0,-192.0,0.11771918833255768,-192.0,-0.11771918833255768,-17504.0,10.73206615447998,2715.0,3954.15380859375,2346.0,1718.6812744140625,52571.0,823.0404052734375,1.2150071859359741
1105001.6721319,12565782.0,812578.125,1711994961920.0,-576.0,0.35315757989883423,176.0,0.10790925472974777,-15552.0,9.53525447845459,2764.0,4025.51806640625,2502.0,1832.967041015625,35452.0,340.9942626953125,2.932600736618042,0.9578348994255066,0.41342428437535556,0.24392202177168432,-50.25280304298128,71.21728665343072,375.24549726776934,17.576138134421203,8.374083260980825,-28.65728060681252,-43.56086558406261,17.87635560212444,-14.916555035974358,-0.16490542832703534,0.1419568793266534,0.9760401857096432,-0.01577581874020438,0.14513064501610162,0.9892867225533185,29.518860658519596,37.88978773505769,3.7830250671271575,2.7154160582999545,0.0,0.25100849857743684,1.9038807532567468,-55.38988789186783,-185.29539517260622,38.883173740715335,343.7138248833004,-206.91446682383435,-153.0791960466327,nan,nan,nan,-0.5766478739828652,0.7844197239928812,0.2283920446118347,nan,nan,nan,0.0,nan,0.0030753359891351195,nan,13393674.0,805835.9375,1711994961920.0,-224.0,0.1373390555381775,-176.0,-0.10790925472974777,-17536.0,10.751686096191406,2693.0,3922.11279296875,2241.0,1641.75830078125,52545.0,830.9352416992188,1.2034631967544556
1105001.7394919,12566102.0,812587.875,1711994961920.0,-560.0,0.3433476388454437,176.0,0.10790925472974777,-15648.0,9.594114303588867,2764.0,4025.51806640625,2509.0,1838.09521484375,35453.0,340.823974609375,2.934065818786621,0.9948583543300629,0.41352333183727197,0.24325868555442076,-50.04773318940471,71.244068762442,374.1381594790364,17.576138134421203,8.374083260980825,-28.65728060681252,-43.56086558406261,17.87635560212444,-14.916555035974358,-0.16490542832703534,0.1419568793266534,0.9760401857096432,-0.015243297961795087,0.1460473770804641,0.9891601516009249,29.518860658519596,37.75832611164935,3.7830250671271575,2.706097335606866,0.0,0.25100849857743684,1.9038807532567468,-55.38988789186783,-185.29539517260622,38.883173740715335,343.7138248833004,-206.91446682383435,-153.0791960466327,nan,nan,nan,-0.5766478739828652,0.7844197239928812,0.2283920446118347,nan,nan,nan,0.0,nan,0.0030753359891351195,nan,13393930.0,805843.75,1711994961920.0,-176.0,0.10790925472974777,-176.0,-0.10790925472974777,-17552.0,10.761495590209961,2719.0,3959.9794921875,2338.0,1712.820556640625,52571.0,823.0404052734375,1.2150071859359741
1105001.8072297,12566422.0,812597.625,1711994961920.0,-560.0,0.3433476388454437,144.0,0.08828939497470856,-15632.0,9.584303855895996,2757.0,4015.322998046875,2496.0,1828.5714111328125,35452.0,340.9942626953125,2.932600736618042,0.9449819028377533,0.4147116428795262,0.2431080853324561,-50.104684322597535,72.44010332378991,380.2217639569599,17.576138134421203,8.374083260980825,-28.65728060681252,-43.56086558406261,17.87635560212444,-14.916555035974358,-0.16254045468004902,0.14348004724483973,0.9762141551089195,-0.015243297961795087,0.1460473770804641,0.9891601516009249,29.434911666533033,37.75832611164935,3.772352281723773,2.706097335606866,0.0,0.25100849857743684,1.9038807532567468,-55.38988789186783,-185.29539517260622,38.883173740715335,343.7138248833004,-206.91446682383435,-153.0791960466327,nan,nan,nan,-0.5766478739828652,0.7844197239928812,0.2283920446118347,nan,nan,nan,0.0,nan,0.0030753359891351195,nan,13394186.0,805851.5625,1711994961920.0,-160.0,0.09809932857751846,-208.0,-0.12752912938594818,-17536.0,10.751686096191406,2712.0,3949.78466796875,2271.0,1663.7362060546875,52546.0,830.6287841796875,1.2039072513580322
1105001.8756747,12566742.0,812607.4375,1711994961920.0,-576.0,0.35315757989883423,144.0,0.08828939497470856,-15600.0,9.56468391418457,2751.0,4006.584716796875,2486.0,1821.245361328125,35453.0,340.823974609375,2.934065818786621,0.9254686832427979,0.4145781421878838,0.24343083762476192,-50.49788795835501,72.77194621639784,382.5757245810484,17.576138134421203,8.374083260980825,-28.65728060681252,-43.56086558406261,17.87635560212444,-14.916555035974358,-0.16254045468004902,0.14348004724483973,0.9762141551089195,-0.016136126961149876,0.14597631887164114,0.989156478892687,29.434911666533033,37.7804845424983,3.772352281723773,2.708026399680936,0.9466696977615356,0.5974152044001302,0.2957391809325586,66.90929630765697,55.79577421642604,394.9244089806702,nan,nan,nan,385.7144841850535,48.6747568399948,9.810733173146552,nan,nan,nan,-0.6376103757547932,0.014242034752862537,0.7702273516150472,nan,45.64833203235844,nan,2.043891374985393,13394442.0,805859.375,1711994961920.0,-208.0,0.12752912938594818,-256.0,-0.1569589227437973,-17552.0,10.761495590209961,2715.0,3954.15380859375,2345.0,1717.94873046875,52566.0,824.5469360351562,1.2127872705459595
1105001.9452687,12567062.0,812617.1875,1711994961920.0,-512.0,0.3139178454875946,192.0,0.11771918833255768,-15664.0,9.603923797607422,2763.0,4024.0615234375,2501.0,1832.234375,35454.0,340.65386962890625,2.9355311393737793,0.9804867804050446,0.4144157167374799,0.24300883746849133,-50.46704532586082,72.72970383066036,381.5281753277758,17.576138134421203,8.374083260980825,-28.65728060681252,-43.56086558406261,17.87635560212444,-14.916555035974358,-0.1628317534319347,0.14400625997740552,0.9760881195679012,-0.016136126961149876,0.14597631887164114,0.989156478892687,29.44468755523797,37.7804845424983,3.774093736500207,2.708026399680936,0.9905188679695129,0.5977100551621869,0.29963308326855786,67.10691727298428,54.374458918756616,395.1115659033453,nan,nan,nan,385.7144841850535,48.6747568399948,9.810733173146552,nan,nan,nan,-0.6372151338241384,0.011399404157523657,0.7706016654603975,nan,45.766603648475524,nan,2.0486487697767957,13394698.0,805867.1875,1711994961920.0,-272.0,0.1667688488960266,-144.0,-0.08828939497470856,-17504.0,10.73206615447998,2692.0,3920.656494140625,2232.0,1635.164794921875,52552.0,828.7948608398438,1.2065712213516235
1105002.0127525,12567382.0,812626.9375,1711994961920.0,-528.0,0.3237277865409851,176.0,0.10790925472974777,-15616.0,9.574494361877441,2744.0,3996.3896484375,2464.0,1805.128173828125,35454.0,340.65386962890625,2.9355311393737793,0.97645103931427,0.41459090638727913,0.24193985191755085,-50.07864600852588,72.70507393177733,379.36834475079513,17.576138134421203,8.374083260980825,-28.65728060681252,-43.56086558406261,17.87635560212444,-14.916555035974358,-0.1628317534319347,0.14400625997740552,0.9760881195679012,-0.015163792116874394,0.14738691352250788,0.9889626672078907,29.44468755523797,37.793838472551286,3.774093736500207,2.708898445051673,1.0,0.597904474066256,0.299041577346144,67.2627072290399,54.6149140794859,395.2367056834684,nan,nan,nan,385.7144841850535,48.6747568399948,9.810733173146552,nan,nan,nan,-0.6369035539120272,0.011880314478982182,0.7708519450206437,nan,45.37895517341001,nan,2.031975185534295,13394954.0,805875.0,1711994961920.0,-288.0,0.17657878994941711,-160.0,-0.09809932857751846,-17568.0,10.771306037902832,2727.0,3971.630859375,2347.0,1719.4139404296875,52562.0,825.7561645507812,1.2110111713409424
1105002.0796766,12567702.0,812636.75,1711994961920.0,-608.0,0.37277743220329285,144.0,0.08828939497470856,-15632.0,9.584303855895996,2760.0,4019.6923828125,2481.0,1817.5823974609375,35454.0,340.65386962890625,2.9355311393737793,0.9712536931037903,0.4158444589074962,0.24145109823769217,-50.12394472383811,74.10528460965,385.8255606463829,17.576138134421203,8.374083260980825,-28.65728060681252,-43.56086558406261,17.87635560212444,-14.916555035974358,-0.1603073082773332,0.14616440873103156,0.976185193768674,-0.015163792116874394,0.14738691352250788,0.9889626672078907,29.37135910267839,37.793838472551286,3.7647908248749373,2.708898445051673,1.0,0.5989755105203435,0.30269843474321023,68.0665596387069,53.358749917870256,395.9167500133983,nan,nan,nan,385.7144841850535,48.6747568399948,9.810733173146552,nan,nan,nan,-0.6352958490926932,0.00936798615575093,0.7722120336805036,nan,45.72846941219468,nan,2.0468231151969123,13395210.0,805882.8125,1711994961920.0,-192.0,0.11771918833255768,-208.0,-0.12752912938594818,-17584.0,10.781115531921387,2712.0,3949.78466796875,2288.0,1676.1904296875,52556.0,827.5767211914062,1.208347201347351
1105002.1468461,12568022.0,812646.5,1711994961920.0,-608.0,0.37277743220329285,160.0,0.09809932857751846,-15648.0,9.594114303588867,2757.0,4015.322998046875,2483.0,1819.047607421875,35454.0,340.65386962890625,2.9355311393737793,0.9790914058685303,0.41606126846349784,0.24069927524771106,-49.53258699128962,73.70044994916611,382.2958786961825,17.576138134421203,8.374083260980825,-28.65728060681252,-43.56086558406261,17.87635560212444,-14.916555035974358,-0.1603073082773332,0.14616440873103156,0.976185193768674,-0.013789730890618433,0.14796949734446846,0.9888957837798632,29.37135910267839,37.84311778316769,3.7647908248749373,2.7117853197883752,1.0,0.6002585028158711,0.3014216805684915,69.07940826599037,53.96528434074172,396.7399760800285,nan,nan,nan,385.7144841850535,48.6747568399948,9.810733173146552,nan,nan,nan,-0.6332701518381263,0.010581055001493856,0.7738584858137639,nan,45.48233240023673,nan,2.0358266098605977,13395466.0,805890.625,1711994961920.0,-192.0,0.11771918833255768,-208.0,-0.12752912938594818,-17536.0,10.751686096191406,2712.0,3949.78466796875,2319.0,1698.901123046875,52554.0,828.185302734375,1.2074592113494873
1105002.2145928,12568342.0,812656.25,1711994961920.0,-528.0,0.3237277865409851,160.0,0.09809932857751846,-15616.0,9.574494361877441,2754.0,4010.953857421875,2484.0,1819.7802734375,35455.0,340.4839172363281,2.9369962215423584,0.9450982213020325,0.4173519805871101,0.24167560798258214,-49.64382596628589,74.74763406932419,389.7227481348179,17.576138134421203,8.374083260980825,-28.65728060681252,-43.56086558406261,17.87635560212444,-14.916555035974358,-0.1578103631840283,0.14593193190055034,0.9766267252760894,-0.013789730890618433,0.14796949734446846,0.9888957837798632,29.4469577625385,37.84311778316769,3.7749440018987173,2.7117853197883752,1.0,0.6006658592314952,0.30052128778987175,69.40606870551716,54.34391866861577,397.00170272303916,nan,nan,nan,385.7144841850535,48.6747568399948,9.810733173146552,nan,nan,nan,-0.6326168309590727,0.01133832365724191,0.7743819390997851,nan,45.527333190969344,nan,2.0380464001005647,13395722.0,805898.4375,1711994961920.0,-256.0,0.1569589227437973,-144.0,-0.08828939497470856,-17536.0,10.751686096191406,2696.0,3926.48193359375,2257.0,1653.4798583984375,52563.0,825.4535522460938,1.211455225944519
1105002.2815481,12568662.0,812666.0,1711994961920.0,-544.0,0.3335376977920532,192.0,0.11771918833255768,-15648.0,9.594114303588867,2755.0,4012.41015625,2482.0,1818.3150634765625,35455.0,340.4839172363281,2.9369962215423584,0.9356932938098907,0.41769257267227033,0.2396647955510206,-48.87792234546741,74.64061287247094,385.30799440600134,17.576138134421203,8.374083260980825,-28.65728060681252,-43.56086558406261,17.87635560212444,-14.916555035974358,-0.1578103631840283,0.14593193190055034,0.9766267252760894,-0.011890740436545515,0.15058167452435267,0.9885260591351717,29.4469577625385,37.864483923106725,3.7749440018987173,2.7132101021231088,1.0,0.6006177313555143,0.3046397728058696,69.33401661982793,52.79636596698883,396.96239864988627,nan,nan,nan,385.7144841850535,48.6747568399948,9.810733173146552,nan,nan,nan,-0.6327609351304513,0.008243218253988051,0.7743033309534795,nan,45.58128453983053,nan,2.0400793402609496,13395978.0,805906.25,1711994961920.0,-256.0,0.1569589227437973,-144.0,-0.08828939497470856,-17584.0,10.781115531921387,2719.0,3959.9794921875,2306.0,1689.3773193359375,52549.0,829.7108154296875,1.205239176750183
1105002.3493424,12568982.0,812675.75,1711994961920.0,-560.0,0.3433476388454437,160.0,0.09809932857751846,-15568.0,9.545063972473145,2738.0,3987.6513671875,2446.0,1791.94140625,35455.0,340.4839172363281,2.9369962215423584,0.9515554904937744,0.4187424029460843,0.24014963436134928,-48.943533764649445,75.59976261019492,391.2794610932232,17.576138134421203,8.374083260980825,-28.65728060681252,-43.56086558406261,17.87635560212444,-14.916555035974358,-0.15575280442293987,0.1462586299744987,0.9769081211006345,-0.011890740436545515,0.15058167452435267,0.9885260591351717,29.394862506639576,37.864483923106725,3.768819917363233,2.7132101021231088,0.8603662587213969,0.592626029783293,0.3559063757370833,15.657333915640917,8.28615814753007,97.60410109109247,21.747478065499905,6.940375595087746,-29.85849825609038,-41.11507987594605,8.17163529832223,-30.18429137041239,-0.047564428120864,0.018530598141212797,0.9986962712006409,0.40583464041644723,-0.007166320829415641,0.9139184255084383,44.82420039993593,45.65909722932941,2.356090597915377,2.0430928855465282,13396234.0,805914.0625,1711994961920.0,-192.0,0.11771918833255768,-176.0,-0.10790925472974777,-17584.0,10.781115531921387,2712.0,3949.78466796875,2310.0,1692.3077392578125,52567.0,824.2451782226562,1.2132312059402466
1105002.4167506,12569302.0,812685.5625,1711994961920.0,-560.0,0.3433476388454437,144.0,0.08828939497470856,-15616.0,9.574494361877441,2766.0,4028.4306640625,2486.0,1821.245361328125,35455.0,340.4839172363281,2.9369962215423584,0.9735972881317139,0.4185227866459182,0.24214255025074594,-49.30655134894864,75.21274252011841,393.15554314956324,17.576138134421203,8.374083260980825,-28.65728060681252,-43.56086558406261,17.87635560212444,-14.916555035974358,-0.15575280442293987,0.1462586299744987,0.9769081211006345,-0.01290331045448272,0.1474746461909579,0.9889816647997914,29.394862506639576,37.73745798145848,3.768819917363233,2.704197918781214,0.8603662587213969,0.5939394650198467,0.3546736659702372,15.706967995348993,8.31226370243636,96.58036245960875,21.747478065499905,6.940375595087746,-29.85849825609038,-41.11507987594605,8.17163529832223,-30.18429137041239,-0.047564428120864,0.018530598141212797,0.9986962712006409,0.4088715952672253,-0.006681420324515983,0.9125674644682887,44.82420039993593,45.41269388807964,2.356090597915377,2.032778929767386,13396490.0,805921.875,1711994961920.0,-224.0,0.1373390555381775,-144.0,-0.08828939497470856,-17488.0,10.722256660461426,2710.0,3946.871826171875,2283.0,1672.5274658203125,52545.0,830.9352416992188,1.2034631967544556
1105002.4847585,12569622.0,812695.3125,1711994961920.0,-544.0,0.3335376977920532,160.0,0.09809932857751846,-15584.0,9.554874420166016,2764.0,4025.51806640625,2497.0,1829.3040771484375,35455.0,340.4839172363281,2.9369962215423584,0.9567842185497284,0.41989136820280726,0.24255032385199482,-49.39141089136676,76.57160502503218,401.18332738367883,17.576138134421203,8.374083260980825,-28.65728060681252,-43.56086558406261,17.87635560212444,-14.916555035974358,-0.1530468929694888,0.1470552880863672,0.9772161433368881,-0.01290331045448272,0.1474746461909579,0.9889816647997914,29.218940052216155,37.73745798145848,3.746555433091896,2.704197918781214,0.8284320570040202,0.5944039552004933,0.3546798176186384,15.723575539163587,8.281801910209797,96.22188975162732,21.747478065499905,6.940375595087746,-29.85849825609038,-41.11507987594605,8.17163529832223,-30.18429137041239,-0.047564428120864,0.018530598141212797,0.9986962712006409,0.40993173769802393,-0.007109356185214448,0.9120884976155056,44.82420039993593,45.61047733820851,2.356090597915377,2.0411585386026476,13396746.0,805929.6875,1711994961920.0,-160.0,0.09809932857751846,-128.0,-0.07847946137189865,-17584.0,10.781115531921387,2696.0,3926.48193359375,2281.0,1671.062255859375,52571.0,823.0404052734375,1.2150071859359741
1105002.5524105,12569942.0,812705.0625,1711994961920.0,-576.0,0.35315757989883423,80.0,0.04904966428875923,-15600.0,9.56468391418457,2763.0,4024.0615234375,2512.0,1840.2930908203125,35456.0,340.31414794921875,2.9384615421295166,0.9598585963249207,0.41978870013109815,0.2424479225677183,-49.7702436489967,77.09131756866,403.6906248672609,17.576138134421203,8.374083260980825,-28.65728060681252,-43.56086558406261,17.87635560212444,-14.916555035974358,-0.1530468929694888,0.1470552880863672,0.9772161433368881,-0.01368236575009803,0.14812661727831997,0.9888737523673904,29.218940052216155,37.78199987759454,3.746555433091896,2.70762092477657,0.0,0.25100849857743684,1.9038807532567468,-55.38988789186783,-185.29539517260622,38.883173740715335,343.7138248833004,-206.91446682383435,-153.0791960466327,nan,nan,nan,-0.5766478739828652,0.7844197239928812,0.2283920446118347,nan,nan,nan,0.0,nan,0.0030753359891351195,nan,13397002.0,805937.5,1711994961920.0,-192.0,0.11771918833255768,-192.0,-0.11771918833255768,-17568.0,10.771306037902832,2717.0,3957.066650390625,2274.0,1665.93408203125,52544.0,831.241943359375,1.2030192613601685
1105002.619399,12570262.0,812714.875,1711994961920.0,-576.0,0.35315757989883423,128.0,0.07847946137189865,-15552.0,9.53525447845459,2752.0,4008.041015625,2482.0,1818.3150634765625,35456.0,340.31414794921875,2.9384615421295166,0.9717501103878021,0.4194708124872479,0.24174719939281053,-49.71739082565205,76.94460613024899,401.48408751494344,17.576138134421203,8.374083260980825,-28.65728060681252,-43.56086558406261,17.87635560212444,-14.916555035974358,-0.15363246682157505,0.14787793620955772,0.9770000926922779,-0.01368236575009803,0.14812661727831997,0.9888737523673904,29.49930223940234,37.78199987759454,3.7832511080559805,2.70762092477657,0.37037476897766225,0.8638273470772118,0.4377128654762691,202.2572773095507,3.18120421292474,278.02387070206197,343.7138248833004,-206.91446682383435,-153.0791960466327,nan,nan,nan,-0.2829130951474995,0.42019134207351827,0.8622061334973893,nan,nan,nan,5.832485618385678,nan,0.33835625425737614,nan,13397258.0,805945.3125,1711994961920.0,-224.0,0.1373390555381775,-208.0,-0.12752912938594818,-17616.0,10.800735473632812,2711.0,3948.328125,2328.0,1705.4945068359375,52571.0,823.0404052734375,1.2150071859359741
1105002.6868671,12570582.0,812724.625,1711994961920.0,-608.0,0.37277743220329285,192.0,0.11771918833255768,-15632.0,9.584303855895996,2766.0,4028.4306640625,2507.0,1836.6300048828125,35457.0,340.14453125,2.9399266242980957,0.9717501103878021,0.4194316887903808,0.24196183304698937,-49.81168375659891,76.97024616749717,402.0472124784908,17.576138134421203,8.374083260980825,-28.65728060681252,-43.56086558406261,17.87635560212444,-14.916555035974358,-0.15363246682157505,0.14787793620955772,0.9770000926922779,-0.013904039397728971,0.14785815200640617,0.988910837524636,29.49930223940234,37.92362192620919,3.7832511080559805,2.718065097497817,0.33653156692520847,0.8616103767937006,0.4571871148430898,202.6029882516744,-2.8466985379825474,281.02226413514853,343.7138248833004,-206.91446682383435,-153.0791960466327,nan,nan,nan,-0.28222167326325204,0.40813553657170354,0.8682029203635624,nan,nan,nan,6.4496468486870295,nan,0.3753452219342357,nan,13397514.0,805953.125,1711994961920.0,-224.0,0.1373390555381775,-160.0,-0.09809932857751846,-17520.0,10.741876602172852,2710.0,3946.871826171875,2272.0,1664.4688720703125,52543.0,831.548828125,1.2025752067565918
1105002.7537687,12570902.0,812734.375,1711994961920.0,-576.0,0.35315757989883423,160.0,0.09809932857751846,-15536.0,9.525444984436035,2766.0,4028.4306640625,2513.0,1841.025634765625,35457.0,340.14453125,2.9399266242980957,0.9722036421298981,0.4199094835226953,0.2429973346793255,-49.89128605231923,77.19710563600148,405.37294298975485,17.576138134421203,8.374083260980825,-28.65728060681252,-43.56086558406261,17.87635560212444,-14.916555035974358,-0.1527508429603659,0.1466706649188194,0.9773202627732472,-0.013904039397728971,0.14785815200640617,0.988910837524636,29.561333710308443,37.92362192620919,3.790587550385725,2.718065097497817,0.22583985924869648,0.8593804432960201,0.47617302160530506,202.8942466834635,-8.813661740591272,283.871507604238,343.7138248833004,-206.91446682383435,-153.0791960466327,nan,nan,nan,-0.2816391563996738,0.3962016101664862,0.8739014073017412,nan,nan,nan,8.584050479028681,nan,0.5011076958288765,nan,13397770.0,805960.9375,1711994961920.0,-272.0,0.1667688488960266,-176.0,-0.10790925472974777,-17520.0,10.741876602172852,2696.0,3926.48193359375,2291.0,1678.3883056640625,52572.0,822.73974609375,1.2154512405395508
1105002.821659,12571222.0,812744.125,1711994961920.0,-544.0,0.3335376977920532,192.0,0.11771918833255768,-15584.0,9.554874420166016,2764.0,4025.51806640625,2512.0,1840.2930908203125,35457.0,340.14453125,2.9399266242980957,0.9722036421298981,0.4199579343119046,0.24195402619594908,-49.92892905806457,77.69873694556436,405.87669104970166,17.576138134421203,8.374083260980825,-28.65728060681252,-43.56086558406261,17.87635560212444,-14.916555035974358,-0.1527508429603659,0.1466706649188194,0.9773202627732472,-0.013859686177169487,0.1497752514129974,0.9886229226369596,29.561333710308443,37.99249304705333,3.790587550385725,2.7223455960065865,0.34014605341570153,0.8617756773693424,0.4569374629922667,202.7461628490606,-2.769840533564434,281.0326441713075,343.7138248833004,-206.91446682383435,-153.0791960466327,nan,nan,nan,-0.28193532406847965,0.4082892525805399,0.8682236804358803,nan,nan,nan,6.381318373608449,nan,0.3713501942933082,nan,13398026.0,805968.75,1711994961920.0,-176.0,0.10790925472974777,-144.0,-0.08828939497470856,-17584.0,10.781115531921387,2726.0,3970.17431640625,2286.0,1674.7252197265625,52545.0,830.9352416992188,1.2034631967544556
1105002.8888071,12571542.0,812753.875,1711994961920.0,-560.0,0.3433476388454437,192.0,0.11771918833255768,-15584.0,9.554874420166016,2759.0,4018.23583984375,2509.0,1838.09521484375,35458.0,339.97509765625,2.941391944885254,0.9667389988899231,0.41905927056555836,0.24128267512456725,-49.844575096186745,76.89353359256835,400.25475567329113,17.576138134421203,8.374083260980825,-28.65728060681252,-43.56086558406261,17.87635560212444,-14.916555035974358,-0.15450111102421973,0.14681764164461705,0.9770230226530973,-0.013859686177169487,0.1497752514129974,0.9886229226369596,29.533134336736644,37.99249304705333,3.786871892519033,2.7223455960065865,0.10083822618845578,0.8322918727690991,0.4834130391032089,176.0181894272985,-10.380051242264472,275.00069993193176,343.7138248833004,-206.91446682383435,-153.0791960466327,nan,nan,nan,-0.3353912709120039,0.3930688311631398,0.8561597919571287,nan,nan,nan,16.556273883157857,nan,0.9604364523656908,nan,13398282.0,805976.5625,1711994961920.0,-144.0,0.08828939497470856,-176.0,-0.10790925472974777,-17584.0,10.781115531921387,2712.0,3949.78466796875,2338.0,1712.820556640625,52568.0,823.9436645507812,1.2136752605438232
1105002.9561671,12571862.0,812763.6875,1711994961920.0,-592.0,0.36296749114990234,176.0,0.10790925472974777,-15600.0,9.56468391418457,2750.0,4005.128173828125,2480.0,1816.849853515625,35458.0,339.97509765625,2.941391944885254,0.9667389988899231,0.41883854099824164,0.24013208222068716,-50.86005614207896,78.6664927307873,407.1237576404633,17.576138134421203,8.374083260980825,-28.65728060681252,-43.56086558406261,17.87635560212444,-14.916555035974358,-0.15450111102421973,0.14681764164461705,0.9770230226530973,-0.015813174834321157,0.15307534759468128,0.9880879927721148,29.533134336736644,37.818510761433075,3.786871892519033,2.710023491555255,0.0,0.25100849857743684,1.9038807532567468,-55.38988789186783,-185.29539517260622,38.883173740715335,343.7138248833004,-206.91446682383435,-153.0791960466327,nan,nan,nan,-0.5766478739828652,0.7844197239928812,0.2283920446118347,nan,nan,nan,0.0,nan,0.0030753359891351195,nan,13398538.0,805984.375,1711994961920.0,-176.0,0.10790925472974777,-160.0,-0.09809932857751846,-17600.0,10.790925979614258,2711.0,3948.328125,2276.0,1667.3992919921875,52548.0,830.0166015625,1.204795241355896
1105003.0238431,12572182.0,812773.4375,1711994961920.0,-576.0,0.35315757989883423,192.0,0.11771918833255768,-15600.0,9.56468391418457,2763.0,4024.0615234375,2505.0,1835.164794921875,35459.0,339.8058166503906,2.942857027053833,0.9761066436767578,0.41936470978430973,0.23911949682953948,-50.843131232345726,79.57627826349828,409.8088315450369,17.576138134421203,8.374083260980825,-28.65728060681252,-43.56086558406261,17.87635560212444,-14.916555035974358,-0.15337402010729503,0.14907289643341806,0.9768590898922312,-0.015813174834321157,0.15307534759468128,0.9880879927721148,29.46585465701103,37.818510761433075,3.778683252929701,2.710023491555255,0.14928256141625826,0.8596180951479129,0.4749824852390656,202.98104697011124,-8.438974907165118,283.7294168827293,343.7138248833004,-206.91446682383435,-153.0791960466327,nan,nan,nan,-0.2814655558263784,0.39695098383333854,0.873617225858724,nan,nan,nan,11.363565691611353,nan,0.6631134679193584,nan,13398794.0,805992.1875,1711994961920.0,-192.0,0.11771918833255768,-256.0,-0.1569589227437973,-17584.0,10.781115531921387,2722.0,3964.3486328125,2357.0,1726.7398681640625,52564.0,825.151123046875,1.2118991613388062
1105003.0915746,12572502.0,812783.1875,1711994961920.0,-528.0,0.3237277865409851,176.0,0.10790925472974777,-15600.0,9.56468391418457,2772.0,4037.169189453125,2520.0,1846.15380859375,35457.0,340.14453125,2.9399266242980957,0.9605185985565186,0.4195151934237497,0.23815926491942396,-50.49466964997266,79.55323667960697,407.7626804432334,17.576138134421203,8.374083260980825,-28.65728060681252,-43.56086558406261,17.87635560212444,-14.916555035974358,-0.15337402010729503,0.14907289643341806,0.9768590898922312,-0.014996760656342943,0.15437890826394765,0.9878978944471174,29.46585465701103,37.66942329833272,3.778683252929701,2.6995324107512424,0.0,0.25100849857743684,1.9038807532567468,-55.38988789186783,-185.29539517260622,38.883173740715335,343.7138248833004,-206.91446682383435,-153.0791960466327,nan,nan,nan,-0.5766478739828652,0.7844197239928812,0.2283920446118347,nan,nan,nan,0.0,nan,0.0030753359891351195,nan,13399050.0,806000.0,1711994961920.0,-192.0,0.11771918833255768,-240.0,-0.1471489816904068,-17552.0,10.761495590209961,2727.0,3971.630859375,2328.0,1705.4945068359375,52554.0,828.185302734375,1.2074592113494873
1105003.1597304,12572822.0,812793.0,1711994961920.0,-576.0,0.35315757989883423,192.0,0.11771918833255768,-15616.0,9.574494361877441,2767.0,4029.88720703125,2530.0,1853.4798583984375,35459.0,339.8058166503906,2.942857027053833,0.9489620923995972,0.41874202245398173,0.23680012731235744,-50.37455201640596,79.06294885183662,402.4921659182422,17.576138134421203,8.374083260980825,-28.65728060681252,-43.56086558406261,17.87635560212444,-14.916555035974358,-0.1548241020285611,0.1504973756522607,0.9764118174995795,-0.014996760656342943,0.15437890826394765,0.9878978944471174,29.543404503888343,37.66942329833272,3.7881672924749514,2.6995324107512424,0.9361315965652466,0.6032685757353418,0.3050293840015629,71.41708386485288,52.91255305087094,398.6541274017724,nan,nan,nan,385.7144841850535,48.6747568399948,9.810733173146552,nan,nan,nan,-0.6285948006404013,0.008475592421752318,0.7776867884572518,nan,45.61047733820851,nan,2.0411585386026476,13399306.0,806007.8125,1711994961920.0,-224.0,0.1373390555381775,-144.0,-0.08828939497470856,-17536.0,10.751686096191406,2712.0,3949.78466796875,2345.0,1717.94873046875,52558.0,826.968994140625,1.2092351913452148
1105003.2278379,12573142.0,812802.75,1711994961920.0,-576.0,0.35315757989883423,192.0,0.11771918833255768,-15584.0,9.554874420166016,2766.0,4028.4306640625,2526.0,1850.5494384765625,35459.0,339.8058166503906,2.942857027053833,0.9645501375198364,0.41887159054548995,0.23498781231954724,-50.27444395304046,79.71880665312005,402.26651099275534,17.576138134421203,8.374083260980825,-28.65728060681252,-43.56086558406261,17.87635560212444,-14.916555035974358,-0.1548241020285611,0.1504973756522607,0.9764118174995795,-0.014580399433461438,0.15750392759218557,0.9874107173539268,29.543404503888343,37.84000464397429,3.7881672924749514,2.7116276993889303,0.02766250304042744,0.8147101410051935,0.547107992517397,167.16339722237456,-29.12442271957974,279.61081621405197,343.7138248833004,-206.91446682383435,-153.0791960466327,nan,nan,nan,-0.3531008553218518,0.3555800882085092,0.8653800245213694,nan,nan,nan,26.11501468250429,nan,1.5184806740557928,nan,13399562.0,806015.625,1711994961920.0,-192.0,0.11771918833255768,-176.0,-0.10790925472974777,-17632.0,10.810545921325684,2714.0,3952.697509765625,2302.0,1686.4468994140625,52560.0,826.3621215820312,1.2101231813430786
1105003.2945606,12573462.0,812812.5,1711994961920.0,-560.0,0.3433476388454437,80.0,0.04904966428875923,-15664.0,9.603923797607422,2749.0,4003.671875,2488.0,1822.7105712890625,35460.0,339.63671875,2.944322347640991,0.9432051181793213,0.419036457851423,0.23606431066346734,-50.34033110562321,79.59352913276263,403.75969207568517,17.576138134421203,8.374083260980825,-28.65728060681252,-43.56086558406261,17.87635560212444,-14.916555035974358,-0.15457146543043226,0.14888430321171406,0.9766990971286148,-0.014580399433461438,0.15750392759218557,0.9874107173539268,29.470431724092904,37.84000464397429,3.778919106654175,2.7116276993889303,0.9757193326950073,0.6037698912650933,0.3086307448837309,71.7825758806531,51.60659444028977,398.96129693560977,nan,nan,nan,385.7144841850535,48.6747568399948,9.810733173146552,nan,nan,nan,-0.6278638166088009,0.005863675200589965,0.7783011275249265,nan,45.687138003697775,nan,2.043994879611012,13399818.0,806023.4375,1711994961920.0,-256.0,0.1569589227437973,-112.0,-0.06866952776908875,-17648.0,10.820355415344238,2718.0,3958.523193359375,2333.0,1709.157470703125,52551.0,829.0999145507812,1.2061271667480469
1105003.3617628,12573782.0,812822.25,1711994961920.0,-528.0,0.3237277865409851,128.0,0.07847946137189865,-15632.0,9.584303855895996,2757.0,4015.322998046875,2493.0,1826.3736572265625,35461.0,339.4678039550781,2.9457874298095703,0.9131718873977661,0.41897971459257155,0.2373512878225097,-50.28705422872004,78.96740148132659,403.11267629375703,17.576138134421203,8.374083260980825,-28.65728060681252,-43.56086558406261,17.87635560212444,-14.916555035974358,-0.15457146543043226,0.14888430321171406,0.9766990971286148,-0.014619675919622918,0.15513273540094694,0.9877854521519462,29.470431724092904,38.053175958871925,3.778919106654175,2.7273385468694755,0.08662212215508175,0.8392934550646881,0.4190507063156176,174.80569126939878,8.277302808561615,265.44505018235964,343.7138248833004,-206.91446682383435,-153.0791960466327,nan,nan,nan,-0.33781626722780334,0.43038353926479206,0.8370484924579846,nan,nan,nan,21.70258206152046,nan,1.2471165943576277,nan,13400074.0,806031.25,1711994961920.0,-256.0,0.1569589227437973,-160.0,-0.09809932857751846,-17632.0,10.810545921325684,2727.0,3971.630859375,2351.0,1722.3443603515625,52566.0,824.5469360351562,1.2127872705459595
1105003.4294931,12574102.0,812832.0,1711994961920.0,-768.0,0.4708767533302307,192.0,0.11771918833255768,-15600.0,9.56468391418457,2763.0,4024.0615234375,2503.0,1833.6995849609375,35460.0,339.63671875,2.944322347640991,0.946150541305542,0.41878150370114964,0.23671952721504774,-50.24235355894991,78.92665063115875,401.64267358722435,17.576138134421203,8.374083260980825,-28.65728060681252,-43.56086558406261,17.87635560212444,-14.916555035974358,-0.15492252778464444,0.1497209041800392,0.9765155714254268,-0.014619675919622918,0.15513273540094694,0.9877854521519462,29.416404796778135,38.053175958871925,3.7722248571421138,2.7273385468694755,0.0,0.25100849857743684,1.9038807532567468,-55.38988789186783,-185.29539517260622,38.883173740715335,343.7138248833004,-206.91446682383435,-153.0791960466327,nan,nan,nan,-0.5766478739828652,0.7844197239928812,0.2283920446118347,nan,nan,nan,0.0,nan,0.0030753359891351195,nan,13400330.0,806039.0625,1711994961920.0,-192.0,0.11771918833255768,-160.0,-0.09809932857751846,-17536.0,10.751686096191406,2712.0,3949.78466796875,2316.0,1696.7032470703125,52546.0,830.6287841796875,1.2039072513580322
1105003.4968021,12574422.0,812841.8125,1711994961920.0,-544.0,0.3335376977920532,160.0,0.09809932857751846,-15584.0,9.554874420166016,2764.0,4025.51806640625,2510.0,1838.827880859375,35461.0,339.4678039550781,2.9457874298095703,0.9761837720870972,0.41859978383217566,0.23555280820323687,-51.12718118243356,80.56665450540564,407.64337620501647,17.576138134421203,8.374083260980825,-28.65728060681252,-43.56086558406261,17.87635560212444,-14.916555035974358,-0.15492252778464444,0.1497209041800392,0.9765155714254268,-0.01628880425003477,0.15829732927394624,0.9872571247658029,29.416404796778135,37.80863225556402,3.7722248571421138,2.709585624039897,1.0,0.6026048951342463,0.30081037155142065,70.92893310081953,54.432915016941266,398.23949169007756,nan,nan,nan,385.7144841850535,48.6747568399948,9.810733173146552,nan,nan,nan,-0.6295711021684681,0.011516316353892954,0.776857517033862,nan,45.09487970183691,nan,2.0188442652405993,13400586.0,806046.875,1711994961920.0,-160.0,0.09809932857751846,-208.0,-0.12752912938594818,-17552.0,10.761495590209961,2710.0,3946.871826171875,2324.0,1702.5640869140625,52569.0,823.642333984375,1.2141191959381104
1105003.5647191,12574742.0,812851.5625,1711994961920.0,-592.0,0.36296749114990234,240.0,0.1471489816904068,-15600.0,9.56468391418457,2765.0,4026.974365234375,2514.0,1841.75830078125,35461.0,339.4678039550781,2.9457874298095703,0.9893030822277069,0.41963224648422753,0.2351381256234084,-51.18253304283185,81.92505495939652,413.7614234904405,17.576138134421203,8.374083260980825,-28.65728060681252,-43.56086558406261,17.87635560212444,-14.916555035974358,-0.1528235988813787,0.1515340917153997,0.9765666217278431,-0.01628880425003477,0.15829732927394624,0.9872571247658029,29.329129583954565,37.80863225556402,3.7611887500488983,2.709585624039897,0.9634994864463806,0.6021551800194125,0.3000864590263913,70.5804284545627,54.659169137580164,397.9533792818991,nan,nan,nan,385.7144841850535,48.6747568399948,9.810733173146552,nan,nan,nan,-0.6302681114609816,0.01196882459517081,0.7762852922175052,nan,45.41430213250108,nan,2.0326884817519812,13400842.0,806054.6875,1711994961920.0,-192.0,0.11771918833255768,-256.0,-0.1569589227437973,-17568.0,10.771306037902832,2719.0,3959.9794921875,2308.0,1690.842529296875,52544.0,831.241943359375,1.2030192613601685
1105003.6327238,12575062.0,812861.3125,1711994961920.0,-560.0,0.3433476388454437,176.0,0.10790925472974777,-15616.0,9.574494361877441,2764.0,4025.51806640625,2512.0,1840.2930908203125,35461.0,339.4678039550781,2.9457874298095703,0.9883291721343994,0.4196706292516293,0.23563302499081107,-50.940835876806105,81.3904217728934,412.0562724198623,17.576138134421203,8.374083260980825,-28.65728060681252,-43.56086558406261,17.87635560212444,-14.916555035974358,-0.1528235988813787,0.1515340917153997,0.9765666217278431,-0.015866045550686856,0.15712390572285925,0.9874514402485712,29.329129583954565,38.016585875267424,3.7611887500488983,2.7248190775082506,0.0,0.25100849857743684,1.9038807532567468,-55.38988789186783,-185.29539517260622,38.883173740715335,343.7138248833004,-206.91446682383435,-153.0791960466327,nan,nan,nan,-0.5766478739828652,0.7844197239928812,0.2283920446118347,nan,nan,nan,0.0,nan,0.0030753359891351195,nan,13401098.0,806062.5,1711994961920.0,-160.0,0.09809932857751846,-208.0,-0.12752912938594818,-17600.0,10.790925979614258,2728.0,3973.087158203125,2369.0,1735.5311279296875,52571.0,823.0404052734375,1.2150071859359741
1105003.699701,12575382.0,812871.125,1711994961920.0,-544.0,0.3335376977920532,144.0,0.08828939497470856,-15680.0,9.613734245300293,2758.0,4016.779541015625,2504.0,1834.4322509765625,35462.0,339.2990417480469,2.9472527503967285,0.9887143075466156,0.4198317473811854,0.23395102252195688,-50.69486071674914,81.81463489674543,410.84569945718636,17.576138134421203,8.374083260980825,-28.65728060681252,-43.56086558406261,17.87635560212444,-14.916555035974358,-0.1528235988813787,0.1515340917153997,0.9765666217278431,-0.015178222323726372,0.15984601346806873,0.9870252648972354,29.329129583954565,37.970148714500155,3.7611887500488983,2.720228967966839,1.0,0.6028176499258067,0.29964729203841645,71.10678833857168,54.89226408065457,398.3764809146065,nan,nan,nan,385.7144841850535,48.6747568399948,9.810733173146552,nan,nan,nan,-0.6292153916929637,0.012435014481319551,0.7771314954829198,nan,45.55494227295199,nan,2.039234227343145,13401354.0,806070.3125,1711994961920.0,-192.0,0.11771918833255768,-176.0,-0.10790925472974777,-17664.0,10.83016586303711,2708.0,3943.958984375,2288.0,1676.1904296875,52542.0,831.85595703125,1.2021311521530151
1105003.7667518,12575702.0,812880.875,1711994961920.0,-560.0,0.3433476388454437,160.0,0.09809932857751846,-15632.0,9.584303855895996,2764.0,4025.51806640625,2503.0,1833.6995849609375,35462.0,339.2990417480469,2.9472527503967285,0.9714580178260803,0.4205488530988674,0.23525580262578638,-50.814611198491775,82.29824606368763,415.95579952676684,17.576138134421203,8.374083260980825,-28.65728060681252,-43.56086558406261,17.87635560212444,-14.916555035974358,-0.1514774946709691,0.1501401872793354,0.9769915520473721,-0.015178222323726372,0.15984601346806873,0.9870252648972354,29.33657699723377,37.970148714500155,3.7621214306864466,2.720228967966839,0.31065514852632853,0.86265995163572,0.4549419503978386,203.41978169136172,-2.1515539323860366,280.9596627541291,343.7138248833004,-206.91446682383435,-153.0791960466327,nan,nan,nan,-0.28058808638387744,0.4095258257828967,0.8680777176015235,nan,nan,nan,8.541352779167037,nan,0.4972600333719379,nan,13401610.0,806078.125,1711994961920.0,-192.0,0.11771918833255768,-160.0,-0.09809932857751846,-17616.0,10.800735473632812,2709.0,3945.415283203125,2330.0,1706.959716796875,52571.0,823.0404052734375,1.2150071859359741
1105003.8337901,12576022.0,812890.625,1711994961920.0,-576.0,0.35315757989883423,112.0,0.06866952776908875,-15616.0,9.574494361877441,2739.0,3989.107666015625,2464.0,1805.128173828125,35463.0,339.13043212890625,2.9487178325653076,0.9718856513500214,0.41897369164970194,0.2368658498738998,-56.766586225940515,89.3406108178221,454.9801183625126,17.576138134421203,8.374083260980825,-28.65728060681252,-43.56086558406261,17.87635560212444,-14.916555035974358,-0.1514774946709691,0.1501401872793354,0.9769915520473721,-0.026173158379953355,0.16337846870420838,0.9862162246405632,29.33657699723377,37.83884074048697,3.7621214306864466,2.708123513950599,0.0,0.25100849857743684,1.9038807532567468,-55.38988789186783,-185.29539517260622,38.883173740715335,343.7138248833004,-206.91446682383435,-153.0791960466327,nan,nan,nan,-0.5766478739828652,0.7844197239928812,0.2283920446118347,nan,nan,nan,0.0,nan,0.0030753359891351195,nan,13401866.0,806085.9375,1711994961920.0,-208.0,0.12752912938594818,-176.0,-0.10790925472974777,-17600.0,10.790925979614258,2723.0,3965.80517578125,2304.0,1687.912109375,52543.0,831.548828125,1.2025752067565918
1105003.901722,12576342.0,812900.375,1711994961920.0,-528.0,0.3237277865409851,144.0,0.08828939497470856,-15552.0,9.53525447845459,2765.0,4026.974365234375,2491.0,1824.908447265625,35462.0,339.2990417480469,2.9472527503967285,0.9998388588428497,0.4131532233247164,0.23395156180372,-55.67279121422868,82.4752130399957,413.61956861087174,17.576138134421203,8.374083260980825,-28.65728060681252,-43.56086558406261,17.87635560212444,-14.916555035974358,-0.16294811627596634,0.14866912972097934,0.9753693665838191,-0.026173158379953355,0.16337846870420838,0.9862162246405632,29.591488176133044,37.83884074048697,3.7978425763648525,2.708123513950599,0.0,0.25100849857743684,1.9038807532567468,-55.38988789186783,-185.29539517260622,38.883173740715335,343.7138248833004,-206.91446682383435,-153.0791960466327,nan,nan,nan,-0.5766478739828652,0.7844197239928812,0.2283920446118347,nan,nan,nan,0.0,nan,0.0030753359891351195,nan,13402122.0,806093.75,1711994961920.0,-176.0,0.10790925472974777,-160.0,-0.09809932857751846,-17616.0,10.800735473632812,2723.0,3965.80517578125,2375.0,1739.9267578125,52570.0,823.3412475585938,1.214563250541687
1105003.9688153,12576662.0,812910.125,1711994961920.0,-480.0,0.2942979633808136,128.0,0.07847946137189865,-15584.0,9.554874420166016,2759.0,4018.23583984375,2499.0,1830.769287109375,35463.0,339.13043212890625,2.9487178325653076,0.9466136395931244,0.41183048772077024,0.23366436478500197,-61.52733766419136,89.81086366352162,449.65967473557293,17.576138134421203,8.374083260980825,-28.65728060681252,-43.56086558406261,17.87635560212444,-14.916555035974358,-0.16294811627596634,0.14866912972097934,0.9753693665838191,-0.03611998790221805,0.16984185599600515,0.9848091644708512,29.591488176133044,37.78481305101316,3.7978425763648525,2.7034742847401527,0.10954149714113647,0.8583860079451077,0.49211345079282987,204.11335860705591,-13.926526356004274,286.54264673354635,343.7138248833004,-206.91446682383435,-153.0791960466327,nan,nan,nan,-0.27920093255248907,0.38597588093566004,0.8792436855603579,nan,nan,nan,13.340480598329847,nan,0.7800117474604065,nan,13402378.0,806101.5625,1711994961920.0,-192.0,0.11771918833255768,-176.0,-0.10790925472974777,-17616.0,10.800735473632812,2713.0,3951.240966796875,2295.0,1681.3187255859375,52545.0,830.9352416992188,1.2034631967544556
1105004.0367576,12576982.0,812919.9375,1711994961920.0,-528.0,0.3237277865409851,112.0,0.06866952776908875,-15648.0,9.594114303588867,2751.0,4006.584716796875,2486.0,1821.245361328125,35464.0,338.9620056152344,2.950183153152466,0.9466136395931244,0.4083674491123954,0.2318162242375983,-60.593807093846564,85.62525698495315,424.59028208038706,17.576138134421203,8.374083260980825,-28.65728060681252,-43.56086558406261,17.87635560212444,-14.916555035974358,-0.16973051205823836,0.14798291291770477,0.9743164838802838,-0.03611998790221805,0.16984185599600515,0.9848091644708512,29.47893494092467,37.78481305101316,3.7859430883635463,2.7034742847401527,0.0,0.25100849857743684,1.9038807532567468,-55.38988789186783,-185.29539517260622,38.883173740715335,343.7138248833004,-206.91446682383435,-153.0791960466327,nan,nan,nan,-0.5766478739828652,0.7844197239928812,0.2283920446118347,nan,nan,nan,0.0,nan,0.0030753359891351195,nan,13402634.0,806109.375,1711994961920.0,-192.0,0.11771918833255768,-208.0,-0.12752912938594818,-17632.0,10.810545921325684,2711.0,3948.328125,2348.0,1720.146484375,52566.0,824.5469360351562,1.2127872705459595
1105004.1047122,12577302.0,812929.6875,1711994961920.0,-544.0,0.3335376977920532,96.0,0.05885959416627884,-15664.0,9.603923797607422,2764.0,4025.51806640625,2496.0,1828.5714111328125,35464.0,338.9620056152344,2.950183153152466,0.9071126878261566,0.40844559637321504,0.23101238695869786,-60.5574866337582,85.96991114779169,424.66874900733103,17.576138134421203,8.374083260980825,-28.65728060681252,-43.56086558406261,17.87635560212444,-14.916555035974358,-0.16951696141377046,0.14941065502840048,0.9741357482184024,-0.03611998790221805,0.16984185599600515,0.9848091644708512,29.50166824016171,37.78481305101316,3.789249321510476,2.7034742847401527,0.0,0.25100849857743684,1.9038807532567468,-55.38988789186783,-185.29539517260622,38.883173740715335,343.7138248833004,-206.91446682383435,-153.0791960466327,nan,nan,nan,-0.5766478739828652,0.7844197239928812,0.2283920446118347,nan,nan,nan,0.0,nan,0.0030753359891351195,nan,13402890.0,806117.1875,1711994961920.0,-208.0,0.12752912938594818,-144.0,-0.08828939497470856,-17520.0,10.741876602172852,2696.0,3926.48193359375,2242.0,1642.4908447265625,52551.0,829.0999145507812,1.2061271667480469
1105004.1723361,12577622.0,812939.4375,1711994961920.0,-592.0,0.36296749114990234,128.0,0.07847946137189865,-15584.0,9.554874420166016,2763.0,4024.0615234375,2513.0,1841.025634765625,35464.0,338.9620056152344,2.950183153152466,0.9507195353507996,0.408100526838256,0.23080892561165867,-62.19763600501647,88.02825731777102,434.38109169666825,17.576138134421203,8.374083260980825,-28.65728060681252,-43.56086558406261,17.87635560212444,-14.916555035974358,-0.16951696141377046,0.14941065502840048,0.9741357482184024,-0.038791663049640206,0.17181809534681106,0.9843646422892471,29.50166824016171,37.82993231414126,3.789249321510476,2.7073384888800285,0.0,0.25100849857743684,1.9038807532567468,-55.38988789186783,-185.29539517260622,38.883173740715335,343.7138248833004,-206.91446682383435,-153.0791960466327,nan,nan,nan,-0.5766478739828652,0.7844197239928812,0.2283920446118347,nan,nan,nan,0.0,nan,0.0030753359891351195,nan,13403146.0,806125.0,1711994961920.0,-208.0,0.12752912938594818,-176.0,-0.10790925472974777,-17568.0,10.771306037902832,2718.0,3958.523193359375,2328.0,1705.4945068359375,52561.0,826.0590209960938,1.2105672359466553
1105004.2396334,12577942.0,812949.25,1711994961920.0,-576.0,0.35315757989883423,128.0,0.07847946137189865,-15584.0,9.554874420166016,2758.0,4016.779541015625,2498.0,1830.03662109375,35464.0,338.9620056152344,2.950183153152466,0.9790500998497009,0.4111497582806042,0.23144901995325362,-63.04322838897971,92.2152313967965,456.73676618757156,17.576138134421203,8.374083260980825,-28.65728060681252,-43.56086558406261,17.87635560212444,-14.916555035974358,-0.1634674374030324,0.15167211369468944,0.9748199663713659,-0.038791663049640206,0.17181809534681106,0.9843646422892471,29.35296564120117,37.82993231414126,3.7702190794109898,2.7073384888800285,0.0,0.25100849857743684,1.9038807532567468,-55.38988789186783,-185.29539517260622,38.883173740715335,343.7138248833004,-206.91446682383435,-153.0791960466327,nan,nan,nan,-0.5766478739828652,0.7844197239928812,0.2283920446118347,nan,nan,nan,0.0,nan,0.0030753359891351195,nan,13403402.0,806132.8125,1711994961920.0,-192.0,0.11771918833255768,-176.0,-0.10790925472974777,-17536.0,10.751686096191406,2708.0,3943.958984375,2270.0,1663.003662109375,52555.0,827.8809204101562,1.207903265953064
1105004.3065824,12578262.0,812959.0,1711994961920.0,-608.0,0.37277743220329285,176.0,0.10790925472974777,-15616.0,9.574494361877441,2764.0,4025.51806640625,2508.0,1837.3626708984375,35464.0,338.9620056152344,2.950183153152466,0.979955643415451,0.4108535047644912,0.23268732756998234,-64.17963000226081,93.0105215848836,463.39420073907223,17.576138134421203,8.374083260980825,-28.65728060681252,-43.56086558406261,17.87635560212444,-14.916555035974358,-0.1634674374030324,0.15167211369468944,0.9748199663713659,-0.04064952693658169,0.17061602499791134,0.9844987496049674,29.35296564120117,37.80792463805657,3.7702190794109898,2.7061119099595556,0.3784129398633572,0.8634613199667202,0.4543695230389664,204.2072907423653,-1.9769046772082675,281.1310324756603,343.7138248833004,-206.91446682383435,-153.0791960466327,nan,nan,nan,-0.27901306828187017,0.4098751242932521,0.868420457044586,nan,nan,nan,5.737907870865635,nan,0.3337087797634517,nan,13403658.0,806140.625,1711994961920.0,-208.0,0.12752912938594818,-192.0,-0.11771918833255768,-17520.0,10.741876602172852,2703.0,3936.677001953125,2298.0,1683.5164794921875,52555.0,827.8809204101562,1.207903265953064
1105004.3737907,12578582.0,812968.75,1711994961920.0,-624.0,0.38258737325668335,192.0,0.11771918833255768,-15600.0,9.56468391418457,2745.0,3997.84619140625,2471.0,1810.2564697265625,35465.0,338.7937316894531,2.951648235321045,0.9801388680934906,0.41207355247152533,0.23361925736361466,-64.62420126975144,94.62926454613742,473.7048967474376,17.576138134421203,8.374083260980825,-28.65728060681252,-43.56086558406261,17.87635560212444,-14.916555035974358,-0.16108267398383241,0.15144493155312458,0.9752521750035156,-0.04064952693658169,0.17061602499791134,0.9844987496049674,29.36126640291212,37.80792463805657,3.7715504593667792,2.7061119099595556,0.0,0.25100849857743684,1.9038807532567468,-55.38988789186783,-185.29539517260622,38.883173740715335,343.7138248833004,-206.91446682383435,-153.0791960466327,nan,nan,nan,-0.5766478739828652,0.7844197239928812,0.2283920446118347,nan,nan,nan,0.0,nan,0.0030753359891351195,nan,13403914.0,806148.4375,1711994961920.0,-208.0,0.12752912938594818,-192.0,-0.11771918833255768,-17536.0,10.751686096191406,2699.0,3930.851318359375,2259.0,1654.945068359375,52563.0,825.4535522460938,1.211455225944519
1105004.4417868,12578902.0,812978.5,1711994961920.0,-576.0,0.35315757989883423,128.0,0.07847946137189865,-15632.0,9.584303855895996,2758.0,4016.779541015625,2481.0,1817.5823974609375,35465.0,338.7937316894531,2.951648235321045,0.9648754298686981,0.4118938914700928,0.23383180386409164,-65.50617206900549,95.61737398142573,479.12556832031885,17.576138134421203,8.374083260980825,-28.65728060681252,-43.56086558406261,17.87635560212444,-14.916555035974358,-0.16108267398383241,0.15144493155312458,0.9752521750035156,-0.041927601306181485,0.17098024896957398,0.984381953669922,29.36126640291212,37.69508221582888,3.7715504593667792,2.6987034429707584,0.0,0.25100849857743684,1.9038807532567468,-55.38988789186783,-185.29539517260622,38.883173740715335,343.7138248833004,-206.91446682383435,-153.0791960466327,nan,nan,nan,-0.5766478739828652,0.7844197239928812,0.2283920446118347,nan,nan,nan,0.0,nan,0.0030753359891351195,nan,13404170.0,806156.25,1711994961920.0,-192.0,0.11771918833255768,-160.0,-0.09809932857751846,-17600.0,10.790925979614258,2717.0,3957.066650390625,2300.0,1684.981689453125,52548.0,830.0166015625,1.204795241355896
1105004.5098112,12579222.0,812988.25,1711994961920.0,-496.0,0.3041079044342041,128.0,0.07847946137189865,-15568.0,9.545063972473145,2764.0,4025.51806640625,2500.0,1831.5018310546875,35465.0,338.7937316894531,2.951648235321045,0.946952760219574,0.4138417185440909,0.23513567148961922,-66.28243414986032,98.48286649269232,496.81567748258146,17.576138134421203,8.374083260980825,-28.65728060681252,-43.56086558406261,17.87635560212444,-14.916555035974358,-0.15724638351618894,0.15138987712375093,0.97588661225346,-0.041927601306181485,0.17098024896957398,0.984381953669922,29.40508471656683,37.69508221582888,3.778231255680278,2.6987034429707584,0.0,0.25100849857743684,1.9038807532567468,-55.38988789186783,-185.29539517260622,38.883173740715335,343.7138248833004,-206.91446682383435,-153.0791960466327,nan,nan,nan,-0.5766478739828652,0.7844197239928812,0.2283920446118347,nan,nan,nan,0.0,nan,0.0030753359891351195,nan,13404426.0,806164.0625,1711994961920.0,-224.0,0.1373390555381775,-192.0,-0.11771918833255768,-17520.0,10.741876602172852,2703.0,3936.677001953125,2294.0,1680.5860595703125,52567.0,824.2451782226562,1.2132312059402466
1105004.577475,12579542.0,812998.0625,1711994961920.0,-560.0,0.3433476388454437,144.0,0.08828939497470856,-15568.0,9.545063972473145,2767.0,4029.88720703125,2514.0,1841.75830078125,35465.0,338.7937316894531,2.951648235321045,0.971090167760849,0.4134788739828329,0.23594247624292564,-68.07462491070595,100.31152809682666,507.99702371125034,17.576138134421203,8.374083260980825,-28.65728060681252,-43.56086558406261,17.87635560212444,-14.916555035974358,-0.15724638351618894,0.15138987712375093,0.97588661225346,-0.044385130067873466,0.17093120989855826,0.9842827244808642,29.40508471656683,37.94151894207177,3.778231255680278,2.7160221872716344,0.2597291399717105,0.868805707211437,0.4526837699390496,209.82562167391382,-1.4710740633506703,282.65806585831814,343.7138248833004,-206.91446682383435,-153.0791960466327,nan,nan,nan,-0.26777640641877326,0.41088678552096725,0.8714745238099016,nan,nan,nan,7.4571903651956974,nan,0.4343414672819623,nan,13404682.0,806171.875,1711994961920.0,-272.0,0.1667688488960266,-192.0,-0.11771918833255768,-17552.0,10.761495590209961,2713.0,3951.240966796875,2283.0,1672.5274658203125,52545.0,830.9352416992188,1.2034631967544556
1105004.6454924,12579862.0,813007.8125,1711994961920.0,-512.0,0.3139178454875946,160.0,0.09809932857751846,-15552.0,9.53525447845459,2763.0,4024.0615234375,2522.0,1847.6190185546875,35466.0,338.6256408691406,2.953113555908203,0.959747701883316,0.4152941264054816,0.23713252954053765,-68.92913049074065,103.31461283942173,526.4555212855626,17.576138134421203,8.374083260980825,-28.65728060681252,-43.56086558406261,17.87635560212444,-14.916555035974358,-0.15365059836084485,0.15137909108590628,0.9764608872890708,-0.044385130067873466,0.17093120989855826,0.9842827244808642,29.387005779630346,37.94151894207177,3.7765859234343195,2.7160221872716344,1.0,0.6019926148442333,0.2981434552623341,70.46874039017354,55.37275000585858,397.8510118901411,nan,nan,nan,385.7144841850535,48.6747568399948,9.810733173146552,nan,nan,nan,-0.6304914875897601,0.013395986331727628,0.7760805574339892,nan,45.454249619121676,nan,2.03437790665103,13404938.0,806179.6875,1711994961920.0,-208.0,0.12752912938594818,-176.0,-0.10790925472974777,-17616.0,10.800735473632812,2694.0,3923.5693359375,2280.0,1670.3297119140625,52571.0,823.0404052734375,1.2150071859359741
1105004.7130363,12580182.0,813017.5625,1711994961920.0,-560.0,0.3433476388454437,144.0,0.08828939497470856,-15600.0,9.56468391418457,2764.0,4025.51806640625,2514.0,1841.75830078125,35467.0,338.4577331542969,2.9545786380767822,0.959747701883316,0.4154368582341609,0.23615737291501915,-68.40538989436703,103.18934063283513,523.3267321877438,17.576138134421203,8.374083260980825,-28.65728060681252,-43.56086558406261,17.87635560212444,-14.916555035974358,-0.15365059836084485,0.15137909108590628,0.9764608872890708,-0.04360756254745421,0.17229617552314244,0.9840794725980053,29.387005779630346,38.02629894638485,3.7765859234343195,2.7229139057963745,0.9871665835380554,0.603128779848754,0.29920644204779845,71.3564097117598,55.090249249346996,398.57524090319714,nan,nan,nan,385.7144841850535,48.6747568399948,9.810733173146552,nan,nan,nan,-0.6287161489465876,0.01283098481870442,0.7775290154601012,nan,45.25454785851747,nan,2.026332984053727,13405194.0,806187.5,1711994961920.0,-208.0,0.12752912938594818,-144.0,-0.08828939497470856,-17584.0,10.781115531921387,2726.0,3970.17431640625,2293.0,1679.853515625,52543.0,831.548828125,1.2025752067565918
1105004.7810459,12580502.0,813027.375,1711994961920.0,-560.0,0.3433476388454437,144.0,0.08828939497470856,-15568.0,9.545063972473145,2758.0,4016.779541015625,2504.0,1834.4322509765625,35467.0,338.4577331542969,2.9545786380767822,0.9817864000797272,0.4157920113528891,0.23760924075458945,-68.68788716836914,103.36986617972389,528.0246373235955,17.576138134421203,8.374083260980825,-28.65728060681252,-43.56086558406261,17.87635560212444,-14.916555035974358,-0.15303303108263439,0.14932671479975185,0.9768738012889766,-0.04360756254745421,0.17229617552314244,0.9840794725980053,29.526240416676664,38.02629894638485,3.7946806027861486,2.7229139057963745,0.0,0.25100849857743684,1.9038807532567468,-55.38988789186783,-185.29539517260622,38.883173740715335,343.7138248833004,-206.91446682383435,-153.0791960466327,nan,nan,nan,-0.5766478739828652,0.7844197239928812,0.2283920446118347,nan,nan,nan,0.0,nan,0.0030753359891351195,nan,13405450.0,806195.3125,1711994961920.0,-176.0,0.10790925472974777,-160.0,-0.09809932857751846,-17504.0,10.73206615447998,2712.0,3949.78466796875,2331.0,1707.6922607421875,52570.0,823.3412475585938,1.214563250541687
1105004.8484246,12580822.0,813037.125,1711994961920.0,-560.0,0.3433476388454437,128.0,0.07847946137189865,-15664.0,9.603923797607422,2772.0,4037.169189453125,2525.0,1849.81689453125,35468.0,338.28997802734375,2.9560439586639404,0.9817864000797272,0.4161413416596534,0.23763010970358966,-66.64436410830956,100.73143619571252,514.6356682920746,17.576138134421203,8.374083260980825,-28.65728060681252,-43.56086558406261,17.87635560212444,-14.916555035974358,-0.15303303108263439,0.14932671479975185,0.9768738012889766,-0.041038974795140876,0.17073544400610283,0.9844618889057122,29.526240416676664,38.079257732508864,3.7946806027861486,2.7267024077434185,0.0,0.25100849857743684,1.9038807532567468,-55.38988789186783,-185.29539517260622,38.883173740715335,343.7138248833004,-206.91446682383435,-153.0791960466327,nan,nan,nan,-0.5766478739828652,0.7844197239928812,0.2283920446118347,nan,nan,nan,0.0,nan,0.0030753359891351195,nan,13405706.0,806203.125,1711994961920.0,-224.0,0.1373390555381775,-176.0,-0.10790925472974777,-17632.0,10.810545921325684,2714.0,3952.697509765625,2283.0,1672.5274658203125,52543.0,831.548828125,1.2025752067565918
1105004.9165752,12581142.0,813046.875,1711994961920.0,-528.0,0.3237277865409851,176.0,0.10790925472974777,-15600.0,9.56468391418457,2742.0,3993.476806640625,2470.0,1809.5238037109375,35468.0,338.28997802734375,2.9560439586639404,0.9860287010669708,0.41614341976149705,0.23601743987667767,-66.50420904840382,101.29241189940971,513.4273753042003,17.576138134421203,8.374083260980825,-28.65728060681252,-43.56086558406261,17.87635560212444,-14.916555035974358,-0.15291310263479718,0.15203931954103042,0.9764740797154323,-0.041038974795140876,0.17073544400610283,0.9844618889057122,29.53866893335136,38.079257732508864,3.7962171880734945,2.7267024077434185,0.9777725338935852,0.603977065942667,0.29509393733665334,72.06340774873564,56.72967115127851,399.11539613748465,nan,nan,nan,385.7144841850535,48.6747568399948,9.810733173146552,nan,nan,nan,-0.6273021528726358,0.01610982862256744,0.7786093259286763,nan,45.39595225501337,nan,2.032461698770305,13405962.0,806210.9375,1711994961920.0,-224.0,0.1373390555381775,-208.0,-0.12752912938594818,-17600.0,10.790925979614258,2697.0,3927.9384765625,2302.0,1686.4468994140625,52573.0,822.4392700195312,1.215895175933838
1105004.9848023,12581462.0,813056.625,1711994961920.0,-496.0,0.3041079044342041,176.0,0.10790925472974777,-15680.0,9.613734245300293,2766.0,4028.4306640625,2502.0,1832.967041015625,35468.0,338.28997802734375,2.9560439586639404,0.9852661788463593,0.41598619305715917,0.236949873687873,-67.10211111262326,101.55011203373347,517.0718941781556,17.576138134421203,8.374083260980825,-28.65728060681252,-43.56086558406261,17.87635560212444,-14.916555035974358,-0.15291310263479718,0.15203931954103042,0.9764740797154323,-0.04193218063510393,0.16951958133198336,0.9846343502906112,29.53866893335136,38.160600779841104,3.7962171880734945,2.732599539297434,0.0,0.25100849857743684,1.9038807532567468,-55.38988789186783,-185.29539517260622,38.883173740715335,343.7138248833004,-206.91446682383435,-153.0791960466327,nan,nan,nan,-0.5766478739828652,0.7844197239928812,0.2283920446118347,nan,nan,nan,0.0,nan,0.0030753359891351195,nan,13406218.0,806218.75,1711994961920.0,-144.0,0.08828939497470856,-224.0,-0.1373390555381775,-17600.0,10.790925979614258,2718.0,3958.523193359375,2274.0,1665.93408203125,52544.0,831.241943359375,1.2030192613601685
1105005.0527256,12581782.0,813066.375,1711994961920.0,-544.0,0.3335376977920532,128.0,0.07847946137189865,-15632.0,9.584303855895996,2758.0,4016.779541015625,2494.0,1827.106201171875,35468.0,338.28997802734375,2.9560439586639404,0.9760168194770813,0.41534078847986605,0.23861182616125853,-70.40378309634562,104.84676797391937,538.1739370710808,17.576138134421203,8.374083260980825,-28.65728060681252,-43.56086558406261,17.87635560212444,-14.916555035974358,-0.15291310263479718,0.15203931954103042,0.9764740797154323,-0.04620859035647831,0.16893995290755875,0.9845425630661476,29.53866893335136,37.965154765681554,3.7962171880734945,2.7187812856351017,0.9991084933280945,0.6038386087025163,0.29238446159647324,71.97679853125527,57.737974368928235,399.02342912308814,nan,nan,nan,385.7144841850535,48.6747568399948,9.810733173146552,nan,nan,nan,-0.6274753713075965,0.018126435057866843,0.7784253918998831,nan,45.46125584932632,nan,2.034888759765267,13406474.0,806226.5625,1711994961920.0,-208.0,0.12752912938594818,-192.0,-0.11771918833255768,-17552.0,10.761495590209961,2712.0,3949.78466796875,2332.0,1708.4249267578125,52569.0,823.642333984375,1.2141191959381104
1105005.1206888,12582102.0,813076.1875,1711994961920.0,-608.0,0.37277743220329285,144.0,0.08828939497470856,-15664.0,9.603923797607422,2750.0,4005.128173828125,2478.0,1815.3846435546875,35469.0,338.12237548828125,2.9575090408325195,0.9644172787666321,0.41459537912215955,0.23696647620306965,-69.90741150708828,103.94682153911783,529.1714340591336,17.576138134421203,8.374083260980825,-28.65728060681252,-43.56086558406261,17.87635560212444,-14.916555035974358,-0.15431021950449944,0.15399034922217986,0.9759484251244551,-0.04620859035647831,0.16893995290755875,0.9845425630661476,29.572641011509532,37.965154765681554,3.800440947911264,2.7187812856351017,1.0,0.6046209523107378,0.2961767579673703,72.56535092030035,56.38873348613308,399.5261612740066,nan,nan,nan,385.7144841850535,48.6747568399948,9.810733173146552,nan,nan,nan,-0.6262982665295064,0.015427953292276564,0.7794308562017201,nan,45.52663790878286,nan,2.0378671444527727,13406730.0,806234.375,1711994961920.0,-160.0,0.09809932857751846,-160.0,-0.09809932857751846,-17584.0,10.781115531921387,2711.0,3948.328125,2273.0,1665.201416015625,52547.0,830.3225708007812,1.2043511867523193
1105005.187801,12582422.0,813085.9375,1711994961920.0,-576.0,0.35315757989883423,112.0,0.06866952776908875,-15616.0,9.574494361877441,2773.0,4038.625732421875,2517.0,1843.9560546875,35469.0,338.12237548828125,2.9575090408325195,0.9248173832893372,0.4145982236179315,0.23870675436680777,-70.07290758327377,103.33784110426427,530.5985349079565,17.576138134421203,8.374083260980825,-28.65728060681252,-43.56086558406261,17.87635560212444,-14.916555035974358,-0.15442971855542212,0.15106612439087613,0.976386444031467,-0.04620859035647831,0.16893995290755875,0.9845425630661476,29.655766795933765,37.965154765681554,3.8109188533732907,2.7187812856351017,0.09847493405265435,0.8345362959941802,0.4776886562157522,177.48507765079395,-8.714994436759241,274.805102261913,343.7138248833004,-206.91446682383435,-153.0791960466327,nan,nan,nan,-0.332457494465013,0.3963989447741503,0.8557685966170914,nan,nan,nan,21.802424317714163,nan,1.2620877880167396,nan,13406986.0,806242.1875,1711994961920.0,-144.0,0.08828939497470856,-176.0,-0.10790925472974777,-17568.0,10.771306037902832,2698.0,3929.394775390625,2302.0,1686.4468994140625,52566.0,824.5469360351562,1.2127872705459595
1105005.2550338,12582742.0,813095.6875,1711994961920.0,-576.0,0.35315757989883423,160.0,0.09809932857751846,-15600.0,9.56468391418457,2766.0,4028.4306640625,2519.0,1845.4212646484375,35469.0,338.12237548828125,2.9575090408325195,0.9162932634353638,0.41478946820689105,0.23774510614991895,-69.24125616158227,102.82629151304282,525.49396123667,17.576138134421203,8.374083260980825,-28.65728060681252,-43.56086558406261,17.87635560212444,-14.916555035974358,-0.15442971855542212,0.15106612439087613,0.976386444031467,-0.0450696568296234,0.1700670111715402,0.9844013092963863,29.655766795933765,37.92426527527169,3.8109188533732907,2.7157849564183425,1.0,0.6026871257376116,0.2925804923964421,71.06360948919752,57.53988855696909,398.29012322205676,nan,nan,nan,385.7144841850535,48.6747568399948,9.810733173146552,nan,nan,nan,-0.6293017493917121,0.01773026343394853,0.7769587800978204,nan,45.03983234468675,nan,2.017148958109977,13407242.0,806250.0,1711994961920.0,-224.0,0.1373390555381775,-224.0,-0.1373390555381775,-17536.0,10.751686096191406,2727.0,3971.630859375,2301.0,1685.7142333984375,52553.0,828.489990234375,1.2070151567459106
1105005.3228248,12583062.0,813105.5,1711994961920.0,-576.0,0.35315757989883423,160.0,0.09809932857751846,-15600.0,9.56468391418457,2758.0,4016.779541015625,2509.0,1838.09521484375,35470.0,337.9549255371094,2.9589743614196777,0.9337077736854553,0.4156273616342028,0.23871354054809646,-69.70071129883345,104.1261169898271,534.7741047226514,17.576138134421203,8.374083260980825,-28.65728060681252,-43.56086558406261,17.87635560212444,-14.916555035974358,-0.15279630062568286,0.1503551764369079,0.9767530964546425,-0.0450696568296234,0.1700670111715402,0.9844013092963863,29.573921791645862,37.92426527527169,3.8003606329701425,2.7157849564183425,0.3865657638711851,0.8642178505374003,0.45332445191562043,204.88088006276334,-1.6533387793340353,281.19408513280734,343.7138248833004,-206.91446682383435,-153.0791960466327,nan,nan,nan,-0.2776658896410742,0.41052225608900067,0.8685465623588802,nan,nan,nan,4.993525129670627,nan,0.2901741632919226,nan,13407498.0,806257.8125,1711994961920.0,-208.0,0.12752912938594818,-272.0,-0.1667688488960266,-17568.0,10.771306037902832,2712.0,3949.78466796875,2333.0,1709.157470703125,52557.0,827.272705078125,1.2087912559509277
1105005.3905877,12583382.0,813115.25,1711994961920.0,-592.0,0.36296749114990234,176.0,0.10790925472974777,-15600.0,9.56468391418457,2764.0,4025.51806640625,2506.0,1835.8974609375,35470.0,337.9549255371094,2.9589743614196777,0.9522437751293182,0.4161546785429936,0.23872131121173024,-66.58458615666419,100.13638300975131,514.3569996442834,17.576138134421203,8.374083260980825,-28.65728060681252,-43.56086558406261,17.87635560212444,-14.916555035974358,-0.15279630062568286,0.1503551764369079,0.9767530964546425,-0.041195416062502495,0.16775829251107058,0.9849670517277253,29.573921791645862,38.00977560826671,3.8003606329701425,2.721433631565856,1.0,0.6010282652054245,0.2877358212372402,69.79670573135687,59.182509401748845,397.21948938934503,nan,nan,nan,385.7144841850535,48.6747568399948,9.810733173146552,nan,nan,nan,-0.6318355569073932,0.021015505123508058,0.7748175124323969,nan,45.30689239136506,nan,2.0288204923546385,13407754.0,806265.625,1711994961920.0,-240.0,0.1471489816904068,-208.0,-0.12752912938594818,-17536.0,10.751686096191406,2717.0,3957.066650390625,2303.0,1687.179443359375,52559.0,826.6654663085938,1.2096792459487915
1105005.4577143,12583702.0,813125.0,1711994961920.0,-576.0,0.35315757989883423,208.0,0.12752912938594818,-15584.0,9.554874420166016,2749.0,4003.671875,2484.0,1819.7802734375,35471.0,337.7876892089844,2.960439443588257,0.9855021238327026,0.41558083107448135,0.23784848410920112,-66.2969694617875,99.39178952391515,508.28095025832556,17.576138134421203,8.374083260980825,-28.65728060681252,-43.56086558406261,17.87635560212444,-14.916555035974358,-0.15389797888743534,0.1511936494613007,0.9764506605338212,-0.041195416062502495,0.16775829251107058,0.9849670517277253,29.724383204996325,38.00977560826671,3.820068847377882,2.721433631565856,0.0,0.25100849857743684,1.9038807532567468,-55.38988789186783,-185.29539517260622,38.883173740715335,343.7138248833004,-206.91446682383435,-153.0791960466327,nan,nan,nan,-0.5766478739828652,0.7844197239928812,0.2283920446118347,nan,nan,nan,0.0,nan,0.0030753359891351195,nan,13408010.0,806273.4375,1711994961920.0,-112.0,0.06866952776908875,-240.0,-0.1471489816904068,-17584.0,10.781115531921387,2696.0,3926.48193359375,2281.0,1671.062255859375,52553.0,828.489990234375,1.2070151567459106
1105005.5246187,12584022.0,813134.75,1711994961920.0,-528.0,0.3237277865409851,192.0,0.11771918833255768,-15584.0,9.554874420166016,2755.0,4012.41015625,2485.0,1820.5128173828125,35471.0,337.7876892089844,2.960439443588257,0.9585357308387756,0.41591222997391136,0.23798719581420125,-64.43914759107001,96.94974194483544,496.16402060291455,17.576138134421203,8.374083260980825,-28.65728060681252,-43.56086558406261,17.87635560212444,-14.916555035974358,-0.15389797888743534,0.1511936494613007,0.9764506605338212,-0.038718542497613744,0.16602993588673576,0.9853603071244077,29.724383204996325,38.10803474703425,3.820068847377882,2.728527762122114,0.9887036085128784,0.6027233012436791,0.2938034521995112,71.08184904498222,57.08294511902298,398.315053965952,nan,nan,nan,385.7144841850535,48.6747568399948,9.810733173146552,nan,nan,nan,-0.6292652702801428,0.01681637655805638,0.7770086415856109,nan,45.453215847001566,nan,2.035245548720346,13408266.0,806281.25,1711994961920.0,-128.0,0.07847946137189865,-224.0,-0.1373390555381775,-17568.0,10.771306037902832,2727.0,3971.630859375,2326.0,1704.029296875,52565.0,824.8489379882812,1.2123432159423828
