timestamp,confidence_006,norm_pos_x_006,norm_pos_y_006,gaze_point_3d_x_006,gaze_point_3d_y_006,gaze_point_3d_z_006,eye_center0_3d_x_006,eye_center0_3d_y_006,eye_center0_3d_z_006,eye_center1_3d_x_006,eye_center1_3d_y_006,eye_center1_3d_z_006,gaze_normal0_x_006,gaze_normal0_y_006,gaze_normal0_z_006,gaze_normal1_x_006,gaze_normal1_y_006,gaze_normal1_z_006,diameter0_2d_006,diameter1_2d_006,diameter0_3d_006,diameter1_3d_006,Timestamp RAW (no units)_006,Timestamp CAL (mSecs)_006,System Timestamp CAL (mSecs)_006,Wide Range Accelerometer X RAW (no units)_006,Wide Range Accelerometer X CAL (m/(sec ^2))_006,Wide Range Accelerometer Y RAW (no units)_006,Wide Range Accelerometer Y CAL (m/(sec ^2))_006,Wide Range Accelerometer Z RAW (no units)_006,Wide Range Accelerometer Z CAL (m/(sec ^2))_006,VSenseBatt RAW (no units)_006,VSenseBatt CAL (m Volts)_006,Internal ADC A13 RAW (no units)_006,Internal ADC A13 CAL (m Volts)_006,GSR RAW (no units)_006,GSR CAL (kOhms)_006,GSR Conductance CAL (u Siemens)_006
932381.6008985,0.0,0.5902594770756103,-0.44602794662677314,53.22949168865358,280.3517899717177,207.16756234170882,nan,nan,nan,-1.3963343535131316,-161.05690299295992,-21.24956684177849,nan,nan,nan,0.1092516520843334,0.8828173859293552,0.45683425836697455,nan,0.0,nan,0.24194863812511525,2765272.0,2495330048.0,1714317164544.0,-624.0,0.38258737325668335,304.0,0.18638871610164642,-15616.0,9.574494361877441,2714.0,3952.697509765625,2286.0,1674.7252197265625,52289.0,917.600341796875,1.0897990465164185
932381.6677588,0.0,0.5902594770756103,-0.44602794662677314,53.22949168865358,280.3517899717177,207.16756234170882,nan,nan,nan,-1.3963343535131316,-161.05690299295992,-21.24956684177849,nan,nan,nan,0.1092516520843334,0.8828173859293552,0.45683425836697455,nan,0.0,nan,0.24194863812511525,2765592.0,2495330048.0,1714317164544.0,-624.0,0.38258737325668335,256.0,0.1569589227437973,-15696.0,9.623543739318848,2698.0,3929.394775390625,2261.0,1656.4102783203125,52291.0,916.853271484375,1.0906870365142822
932381.7352326,0.0,0.5902594770756103,-0.44602794662677314,53.22949168865358,280.3517899717177,207.16756234170882,nan,nan,nan,-1.3963343535131316,-161.05690299295992,-21.24956684177849,nan,nan,nan,0.1092516520843334,0.8828173859293552,0.45683425836697455,nan,0.0,nan,0.24194863812511525,2765912.0,2495330048.0,1714317164544.0,-624.0,0.38258737325668335,336.0,0.20600858330726624,-15632.0,9.584303855895996,2704.0,3938.13330078125,2257.0,1653.4798583984375,52289.0,917.600341796875,1.0897990465164185
932381.8023112,0.0,0.5902594770756103,-0.44602794662677314,53.22949168865358,280.3517899717177,207.16756234170882,nan,nan,nan,-1.3963343535131316,-161.05690299295992,-21.24956684177849,nan,nan,nan,0.1092516520843334,0.8828173859293552,0.45683425836697455,nan,0.0,nan,0.24194863812511525,2766232.0,2495330048.0,1714317164544.0,-624.0,0.38258737325668335,288.0,0.17657878994941711,-15616.0,9.574494361877441,2697.0,3927.9384765625,2244.0,1643.9560546875,52289.0,917.600341796875,1.0897990465164185
932381.8694414,1.0,0.37504139951030535,0.2618112815829925,-69.11121178110892,60.6580646124757,347.87090404003703,229.89396046436596,-178.55481227368472,26.35402034292764,nan,nan,nan,-0.5980103444909497,0.4784257537723209,0.6430337673942188,nan,nan,nan,66.1773946325856,nan,3.5231349542082246,nan,2766552.0,2495330048.0,1714317164544.0,-624.0,0.38258737325668335,320.0,0.19619865715503693,-15648.0,9.594114303588867,2705.0,3939.58984375,2258.0,1654.21240234375,52290.0,917.2266235351562,1.0902431011199951
932381.9372459,0.0,0.5902594770756103,-0.44602794662677314,53.22949168865358,280.3517899717177,207.16756234170882,nan,nan,nan,-1.3963343535131316,-161.05690299295992,-21.24956684177849,nan,nan,nan,0.1092516520843334,0.8828173859293552,0.45683425836697455,nan,0.0,nan,0.24194863812511525,2766872.0,2495330048.0,1714317164544.0,-576.0,0.35315757989883423,240.0,0.1471489816904068,-15664.0,9.603923797607422,2710.0,3946.871826171875,2271.0,1663.7362060546875,52288.0,917.9743041992188,1.0893551111221313
932382.0043496,1.0,0.40525483923847394,0.2327656155491199,-52.48489370985729,71.2667509685939,354.7613425122679,229.89396046436596,-178.55481227368472,26.35402034292764,nan,nan,nan,-0.5647577083484465,0.49964312648455733,0.6568146443386805,nan,nan,nan,66.8248287482414,nan,3.53008262432154,nan,2767192.0,2495330048.0,1714317164544.0,-624.0,0.38258737325668335,320.0,0.19619865715503693,-15696.0,9.623543739318848,2705.0,3939.58984375,2271.0,1663.7362060546875,52289.0,917.600341796875,1.0897990465164185
932382.0713978,1.0,0.4133940276585621,0.21455000900180798,-47.698331184697025,77.29146207227507,354.2033813615416,229.89396046436596,-178.55481227368472,26.35402034292764,nan,nan,nan,-0.5551845832981259,0.5116925486919196,0.6556987220372279,nan,nan,nan,67.00224867292417,nan,3.5232390770932884,nan,2767512.0,2495330048.0,1714317164544.0,-640.0,0.39239731431007385,240.0,0.1471489816904068,-15680.0,9.613734245300293,2707.0,3942.502685546875,2276.0,1667.3992919921875,52289.0,917.600341796875,1.0897990465164185
932382.1382497,0.0,0.5902462102687454,-0.44604108328727365,53.21972841449816,280.3434278727061,207.15478685838374,nan,nan,nan,-1.3983344836707923,-161.06825606925716,-21.25841872476958,nan,nan,nan,0.10923612579633792,0.8828233678839267,0.4568264111663067,nan,0.0,nan,0.24139357316791976,2767832.0,2495330048.0,1714317164544.0,-608.0,0.37277743220329285,224.0,0.1373390555381775,-15696.0,9.623543739318848,2699.0,3930.851318359375,2261.0,1656.4102783203125,52290.0,917.2266235351562,1.0902431011199951
932382.2052699,0.0,0.5902462102687454,-0.44604108328727365,53.21972841449816,280.3434278727061,207.15478685838374,nan,nan,nan,-1.3983344836707923,-161.06825606925716,-21.25841872476958,nan,nan,nan,0.10923612579633792,0.8828233678839267,0.4568264111663067,nan,0.0,nan,0.24139357316791976,2768152.0,2495330304.0,1714317164544.0,-656.0,0.40220722556114197,240.0,0.1471489816904068,-15648.0,9.594114303588867,2701.0,3933.76416015625,2255.0,1652.0146484375,52290.0,917.2266235351562,1.0902431011199951
932382.2721941,0.0,0.5902462102687454,-0.44604108328727365,53.21972841449816,280.3434278727061,207.15478685838374,nan,nan,nan,-1.3983344836707923,-161.06825606925716,-21.25841872476958,nan,nan,nan,0.10923612579633792,0.8828233678839267,0.4568264111663067,nan,0.0,nan,0.24139357316791976,2768472.0,2495330304.0,1714317164544.0,-624.0,0.38258737325668335,192.0,0.11771918833255768,-15584.0,9.554874420166016,2712.0,3949.78466796875,2272.0,1664.4688720703125,52289.0,917.600341796875,1.0897990465164185
932382.3392302,1.0,0.39735603923811147,0.21703609131090784,-56.60352407623691,75.76976954259209,349.8487262353722,229.54374375607128,-177.3417167979034,27.274212991361466,nan,nan,nan,-0.5722945356646164,0.5062229726809909,0.6451490264880215,nan,nan,nan,68.2958800658139,nan,3.2351857586806614,nan,2768792.0,2495330304.0,1714317164544.0,-624.0,0.38258737325668335,256.0,0.1569589227437973,-15600.0,9.56468391418457,2712.0,3949.78466796875,2284.0,1673.2601318359375,52288.0,917.9743041992188,1.0893551111221313
932382.4062968,1.0,0.3987493780427113,0.21960689851257353,-55.92456715077057,75.10490590789829,350.96935684191305,229.54374375607128,-177.3417167979034,27.274212991361466,nan,nan,nan,-0.5709366218136837,0.5048932454116033,0.6473902877011032,nan,nan,nan,68.16087200258343,nan,3.2293282333422666,nan,2769112.0,2495330304.0,1714317164544.0,-624.0,0.38258737325668335,256.0,0.1569589227437973,-15536.0,9.525444984436035,2711.0,3948.328125,2290.0,1677.6556396484375,52288.0,917.9743041992188,1.0893551111221313
932382.4733174,1.0,0.4031876491713085,0.22535821288270608,-53.68347101717069,73.69526713995015,354.01995130661123,229.54374375607128,-177.3417167979034,27.274212991361466,nan,nan,nan,-0.5664544295464841,0.5020739678757071,0.6534914766304996,nan,nan,nan,68.25498793106071,nan,3.2310620245121084,nan,2769432.0,2495330304.0,1714317164544.0,-656.0,0.40220722556114197,240.0,0.1471489816904068,-15600.0,9.56468391418457,2707.0,3942.502685546875,2287.0,1675.4578857421875,52288.0,917.9743041992188,1.0893551111221313
932382.5402135,1.0,0.4125729193060489,0.23484231350003992,-48.78421687961324,71.46017631214625,359.8868470166436,229.54374375607128,-177.3417167979034,27.274212991361466,nan,nan,nan,-0.5566559212713691,0.4976037862200992,0.6652252680505643,nan,nan,nan,68.0608542417457,nan,3.222820312777655,nan,2769752.0,2495330304.0,1714317164544.0,-608.0,0.37277743220329285,256.0,0.1569589227437973,-15616.0,9.574494361877441,2704.0,3938.13330078125,2269.0,1662.2711181640625,52288.0,917.9743041992188,1.0893551111221313
932382.6081037,1.0,0.41824874786874383,0.2363497646321715,-45.67558056023327,71.37618366592324,362.52595349652694,229.54374375607128,-177.3417167979034,27.274212991361466,nan,nan,nan,-0.5504386486326092,0.4974358009276532,0.670503481010331,nan,nan,nan,68.04675186196833,nan,3.224623641740065,nan,2770072.0,2495330304.0,1714317164544.0,-576.0,0.35315757989883423,256.0,0.1569589227437973,-15600.0,9.56468391418457,2712.0,3949.78466796875,2280.0,1670.3297119140625,52289.0,917.600341796875,1.0897990465164185
932382.6753699,1.0,0.42074941960058376,0.24620635298498905,-44.46350519907551,68.49321350188575,365.6308511182498,229.54374375607128,-177.3417167979034,27.274212991361466,nan,nan,nan,-0.5480144979102937,0.4916698605995782,0.6767132762537766,nan,nan,nan,68.02178284963392,nan,3.224856431724086,nan,2770392.0,2495330304.0,1714317164544.0,-624.0,0.38258737325668335,304.0,0.18638871610164642,-15648.0,9.594114303588867,2692.0,3920.656494140625,2241.0,1641.75830078125,52289.0,917.600341796875,1.0897990465164185
932382.7422394,0.0,0.5902462102687454,-0.44604108328727365,53.21972841449816,280.3434278727061,207.15478685838374,nan,nan,nan,-1.3983344836707923,-161.06825606925716,-21.25841872476958,nan,nan,nan,0.10923612579633792,0.8828233678839267,0.4568264111663067,nan,0.0,nan,0.24139357316791976,2770712.0,2495330304.0,1714317164544.0,-608.0,0.37277743220329285,208.0,0.12752912938594818,-15616.0,9.574494361877441,2713.0,3951.240966796875,2271.0,1663.7362060546875,52288.0,917.9743041992188,1.0893551111221313
932382.8092406,0.9650364518165588,0.422444137936597,0.27353767493694414,-44.00721104858974,59.991684630732664,372.0099548165633,229.54374375607128,-177.3417167979034,27.274212991361466,nan,nan,nan,-0.547101909609322,0.47466680285727214,0.6894714836504037,nan,nan,nan,68.4181724785634,nan,3.248430826792795,nan,2771032.0,2495330304.0,1714317164544.0,-608.0,0.37277743220329285,256.0,0.1569589227437973,-15616.0,9.574494361877441,2707.0,3942.502685546875,2279.0,1669.5970458984375,52289.0,917.600341796875,1.0897990465164185
932382.8762948,1.0,0.41987132900447754,0.27585185744252305,-45.51201317747615,59.111128727508174,371.4171809867124,229.54374375607128,-177.3417167979034,27.274212991361466,nan,nan,nan,-0.5501115138670949,0.47290569105082303,0.688285935990702,nan,nan,nan,68.55225212787644,nan,3.25511819276281,nan,2771352.0,2495330304.0,1714317164544.0,-640.0,0.39239731431007385,288.0,0.17657878994941711,-15648.0,9.594114303588867,2698.0,3929.394775390625,2254.0,1651.2821044921875,52288.0,917.9743041992188,1.0893551111221313
932382.9431864,0.8974109788466775,0.4985240519895469,0.3319638867408683,2.6716244423295734,43.85353104402759,414.0580076496151,229.54374375607128,-177.3417167979034,27.274212991361466,nan,nan,nan,-0.4537442386274834,0.4423904956838618,0.7735675893165073,nan,nan,nan,67.19649907983147,nan,3.2630909074109073,nan,2771672.0,2495330304.0,1714317164544.0,-624.0,0.38258737325668335,256.0,0.1569589227437973,-15584.0,9.554874420166016,2708.0,3943.958984375,2264.0,1658.6080322265625,52288.0,917.9743041992188,1.0893551111221313
932383.0104859,0.0,0.5902462102687454,-0.44604108328727365,53.21972841449816,280.3434278727061,207.15478685838374,nan,nan,nan,-1.3983344836707923,-161.06825606925716,-21.25841872476958,nan,nan,nan,0.10923612579633792,0.8828233678839267,0.4568264111663067,nan,0.0,nan,0.24139357316791976,2771992.0,2495330304.0,1714317164544.0,-624.0,0.38258737325668335,272.0,0.1667688488960266,-15632.0,9.584303855895996,2720.0,3961.435791015625,2297.0,1682.783935546875,52287.0,918.3486328125,1.0889110565185547
932383.0782846,1.0,0.5814269172800708,0.3224856250085495,62.48552090357467,50.864523209300614,439.60110054435626,229.54374375607128,-177.3417167979034,27.274212991361466,nan,nan,nan,-0.33411644570499327,0.45641248001440793,0.8246537751059896,nan,nan,nan,67.00037568032786,nan,3.2776736682116607,nan,2772312.0,2495330304.0,1714317164544.0,-624.0,0.38258737325668335,224.0,0.1373390555381775,-15648.0,9.594114303588867,2693.0,3922.11279296875,2251.0,1649.084228515625,52288.0,917.9743041992188,1.0893551111221313
932383.1452767,0.09714497232563721,0.6242209271095672,0.19805135042645405,91.88816042596558,99.76288280482231,420.0690911644341,229.60823231899062,-177.30723060262812,27.302832361361062,nan,nan,nan,-0.27544014378605003,0.5541402268149009,0.7855325176061462,nan,nan,nan,67.80520330094149,nan,3.2100353352598088,nan,2772632.0,2495330304.0,1714317164544.0,-688.0,0.421827107667923,288.0,0.17657878994941711,-15648.0,9.594114303588867,2712.0,3949.78466796875,2274.0,1665.93408203125,52288.0,917.9743041992188,1.0893551111221313
932383.2121197,0.0,0.5902462102687454,-0.44604108328727365,53.21972841449816,280.3434278727061,207.15478685838374,nan,nan,nan,-1.3983344836707923,-161.06825606925716,-21.25841872476958,nan,nan,nan,0.10923612579633792,0.8828233678839267,0.4568264111663067,nan,0.0,nan,0.24139357316791976,2772952.0,2495330304.0,1714317164544.0,-640.0,0.39239731431007385,304.0,0.18638871610164642,-15648.0,9.594114303588867,2701.0,3933.76416015625,2260.0,1655.6776123046875,52287.0,918.3486328125,1.0889110565185547
932383.2796756,0.0,0.5902462102687454,-0.44604108328727365,53.21972841449816,280.3434278727061,207.15478685838374,nan,nan,nan,-1.3983344836707923,-161.06825606925716,-21.25841872476958,nan,nan,nan,0.10923612579633792,0.8828233678839267,0.4568264111663067,nan,0.0,nan,0.24139357316791976,2773272.0,2495330304.0,1714317164544.0,-640.0,0.39239731431007385,256.0,0.1569589227437973,-15584.0,9.554874420166016,2702.0,3935.220458984375,2257.0,1653.4798583984375,52288.0,917.9743041992188,1.0893551111221313
932383.3472909,0.0,0.5902462102687454,-0.44604108328727365,53.21972841449816,280.3434278727061,207.15478685838374,nan,nan,nan,-1.3983344836707923,-161.06825606925716,-21.25841872476958,nan,nan,nan,0.10923612579633792,0.8828233678839267,0.4568264111663067,nan,0.0,nan,0.24139357316791976,2773592.0,2495330304.0,1714317164544.0,-672.0,0.41201716661453247,272.0,0.1667688488960266,-15584.0,9.554874420166016,2714.0,3952.697509765625,2281.0,1671.062255859375,52286.0,918.7232055664062,1.0884671211242676
932383.4141888,0.0,0.5902462102687454,-0.44604108328727365,53.21972841449816,280.3434278727061,207.15478685838374,nan,nan,nan,-1.3983344836707923,-161.06825606925716,-21.25841872476958,nan,nan,nan,0.10923612579633792,0.8828233678839267,0.4568264111663067,nan,0.0,nan,0.24139357316791976,2773912.0,2495330304.0,1714317164544.0,-656.0,0.40220722556114197,288.0,0.17657878994941711,-15632.0,9.584303855895996,2687.0,3913.374267578125,2470.0,1809.5238037109375,52288.0,917.9743041992188,1.0893551111221313
932383.4811404,0.1962885689067667,0.5967154790713813,0.2432139608458107,72.06098313913881,81.36271877378738,425.1328482795474,229.60823231899062,-177.30723060262812,27.302832361361062,nan,nan,nan,-0.3150944983597036,0.5173398987528308,0.7956600318363726,nan,nan,nan,60.39276075458876,nan,2.9110889278445446,nan,2774232.0,2495330304.0,1714317164544.0,-656.0,0.40220722556114197,272.0,0.1667688488960266,-15600.0,9.56468391418457,2713.0,3951.240966796875,2383.0,1745.78759765625,52288.0,917.9743041992188,1.0893551111221313
932383.5482522,0.17805868479284248,0.6156272873874652,0.28890775731495555,88.46534995605823,65.48573480566807,440.9817691064283,229.60823231899062,-177.30723060262812,27.302832361361062,nan,nan,nan,-0.2822857647258648,0.4855859308165923,0.8273578734901346,nan,nan,nan,58.73750351054309,nan,2.8704537673392347,nan,2774552.0,2495330304.0,1714317164544.0,-688.0,0.421827107667923,256.0,0.1569589227437973,-15600.0,9.56468391418457,2708.0,3943.958984375,2323.0,1701.83154296875,52286.0,918.7232055664062,1.0884671211242676
932383.6153678,0.0,0.5902462102687454,-0.44604108328727365,53.21972841449816,280.3434278727061,207.15478685838374,nan,nan,nan,-1.3983344836707923,-161.06825606925716,-21.25841872476958,nan,nan,nan,0.10923612579633792,0.8828233678839267,0.4568264111663067,nan,0.0,nan,0.24139357316791976,2774872.0,2495330304.0,1714317164544.0,-624.0,0.38258737325668335,208.0,0.12752912938594818,-15536.0,9.525444984436035,2698.0,3929.394775390625,2278.0,1668.864501953125,52288.0,917.9743041992188,1.0893551111221313
932383.6834345,0.18039646290692207,0.5642036053137055,0.2887712969358115,48.67101063391934,62.67820325635961,426.8885094625315,229.60823231899062,-177.30723060262812,27.302832361361062,nan,nan,nan,-0.3618744433701425,0.47997086771797537,0.7991713542023409,nan,nan,nan,61.07031377972957,nan,2.966646028884417,nan,2775192.0,2495330304.0,1714317164544.0,-656.0,0.40220722556114197,256.0,0.1569589227437973,-15552.0,9.53525447845459,2704.0,3938.13330078125,2265.0,1659.3406982421875,52287.0,918.3486328125,1.0889110565185547
932383.7512062,0.1703864174123455,0.6231277721389505,0.24218398757029957,92.73324106710089,83.61444505625673,431.2646077079337,229.60823231899062,-177.30723060262812,27.302832361361062,nan,nan,nan,-0.2737499825037794,0.5218433513177697,0.8079235506931454,nan,nan,nan,60.76749949794155,nan,2.9250388560479186,nan,2775512.0,2495330304.0,1714317164544.0,-640.0,0.39239731431007385,256.0,0.1569589227437973,-15680.0,9.613734245300293,2714.0,3952.697509765625,2286.0,1674.7252197265625,52287.0,918.3486328125,1.0889110565185547
932383.8186457,0.0,0.5902462102687454,-0.44604108328727365,53.21972841449816,280.3434278727061,207.15478685838374,nan,nan,nan,-1.3983344836707923,-161.06825606925716,-21.25841872476958,nan,nan,nan,0.10923612579633792,0.8828233678839267,0.4568264111663067,nan,0.0,nan,0.24139357316791976,2775832.0,2495330304.0,1714317164544.0,-624.0,0.38258737325668335,288.0,0.17657878994941711,-15664.0,9.603923797607422,2705.0,3939.58984375,2277.0,1668.1318359375,52287.0,918.3486328125,1.0889110565185547
932383.8863677,0.0,0.5902462102687454,-0.44604108328727365,53.21972841449816,280.3434278727061,207.15478685838374,nan,nan,nan,-1.3983344836707923,-161.06825606925716,-21.25841872476958,nan,nan,nan,0.10923612579633792,0.8828233678839267,0.4568264111663067,nan,0.0,nan,0.24139357316791976,2776152.0,2495330304.0,1714317164544.0,-672.0,0.41201716661453247,272.0,0.1667688488960266,-15680.0,9.613734245300293,2708.0,3943.958984375,2273.0,1665.201416015625,52286.0,918.7232055664062,1.0884671211242676
932383.9532239,0.0,0.5902462102687454,-0.44604108328727365,53.21972841449816,280.3434278727061,207.15478685838374,nan,nan,nan,-1.3983344836707923,-161.06825606925716,-21.25841872476958,nan,nan,nan,0.10923612579633792,0.8828233678839267,0.4568264111663067,nan,0.0,nan,0.24139357316791976,2776472.0,2495330560.0,1714317164544.0,-624.0,0.38258737325668335,304.0,0.18638871610164642,-15632.0,9.584303855895996,2699.0,3930.851318359375,2261.0,1656.4102783203125,52287.0,918.3486328125,1.0889110565185547
932384.0200545,0.1631612320900722,0.6338253270184058,0.23705992667398224,101.1505108725746,86.29425764782013,432.28785577944234,229.60823231899062,-177.30723060262812,27.302832361361062,nan,nan,nan,-0.256915442892832,0.5272029765008964,0.8099700468361625,nan,nan,nan,63.60883932907946,nan,3.050087049412576,nan,2776792.0,2495330560.0,1714317164544.0,-576.0,0.35315757989883423,256.0,0.1569589227437973,-15616.0,9.574494361877441,2708.0,3943.958984375,2266.0,1660.0732421875,52287.0,918.3486328125,1.0889110565185547
932384.0873547,0.0,0.5902462102687454,-0.44604108328727365,53.21972841449816,280.3434278727061,207.15478685838374,nan,nan,nan,-1.3983344836707923,-161.06825606925716,-21.25841872476958,nan,nan,nan,0.10923612579633792,0.8828233678839267,0.4568264111663067,nan,0.0,nan,0.24139357316791976,2777112.0,2495330560.0,1714317164544.0,-576.0,0.35315757989883423,288.0,0.17657878994941711,-15600.0,9.56468391418457,2708.0,3943.958984375,2270.0,1663.003662109375,52287.0,918.3486328125,1.0889110565185547
932384.1541645,0.0,0.5902462102687454,-0.44604108328727365,53.21972841449816,280.3434278727061,207.15478685838374,nan,nan,nan,-1.3983344836707923,-161.06825606925716,-21.25841872476958,nan,nan,nan,0.10923612579633792,0.8828233678839267,0.4568264111663067,nan,0.0,nan,0.24139357316791976,2777432.0,2495330560.0,1714317164544.0,-656.0,0.40220722556114197,272.0,0.1667688488960266,-15616.0,9.574494361877441,2693.0,3922.11279296875,2241.0,1641.75830078125,52287.0,918.3486328125,1.0889110565185547
932384.2212793,0.19242758899866194,0.612130068711283,0.30238676175236245,86.12012745332618,60.087161435324674,443.25064481489244,229.5937886028561,-177.31193078106352,27.249467447346227,nan,nan,nan,-0.28694732229905984,0.4747981844327764,0.8320023547350924,nan,nan,nan,60.651122498412256,nan,2.978730021915921,nan,2777752.0,2495330560.0,1714317164544.0,-640.0,0.39239731431007385,320.0,0.19619865715503693,-15568.0,9.545063972473145,2704.0,3938.13330078125,2247.0,1646.15380859375,52287.0,918.3486328125,1.0889110565185547
932384.2884956,0.18464180454311604,0.6120520931102101,0.23665235011612218,83.74177409768708,84.84386515665494,427.25137809408966,229.5937886028561,-177.31193078106352,27.249467447346227,nan,nan,nan,-0.29170402901033804,0.524311591875437,0.8000038212934869,nan,nan,nan,61.06296859172536,nan,2.9420967008036643,nan,2778072.0,2495330560.0,1714317164544.0,-592.0,0.36296749114990234,240.0,0.1471489816904068,-15616.0,9.574494361877441,2698.0,3929.394775390625,2243.0,1643.223388671875,52287.0,918.3486328125,1.0889110565185547
932384.3560791,0.0,0.5902462102687454,-0.44604108328727365,53.21972841449816,280.3434278727061,207.15478685838374,nan,nan,nan,-1.3983344836707923,-161.06825606925716,-21.25841872476958,nan,nan,nan,0.10923612579633792,0.8828233678839267,0.4568264111663067,nan,6.977563469922168e-06,nan,0.24139357316791976,2778392.0,2495330560.0,1714317164544.0,-592.0,0.36296749114990234,240.0,0.1471489816904068,-15600.0,9.56468391418457,2704.0,3938.13330078125,2248.0,1646.886474609375,52287.0,918.3486328125,1.0889110565185547
932384.4233319,0.15906432475238244,0.6266610441184051,0.23961968708975945,95.45584244808634,84.81071633674537,431.35184218589274,229.5937886028561,-177.31193078106352,27.249467447346227,nan,nan,nan,-0.2682758923095396,0.5242452942356178,0.8082047494770931,nan,nan,nan,60.16986190109838,nan,2.8987721504317703,nan,2778712.0,2495330560.0,1714317164544.0,-576.0,0.35315757989883423,320.0,0.19619865715503693,-15632.0,9.584303855895996,2712.0,3949.78466796875,2271.0,1663.7362060546875,52287.0,918.3486328125,1.0889110565185547
932384.4902286,0.0,0.5902462102687454,-0.44604108328727365,53.21972841449816,280.3434278727061,207.15478685838374,nan,nan,nan,-1.3983344836707923,-161.06825606925716,-21.25841872476958,nan,nan,nan,0.10923612579633792,0.8828233678839267,0.4568264111663067,nan,0.0,nan,0.24139357316791976,2779032.0,2495330560.0,1714317164544.0,-576.0,0.35315757989883423,288.0,0.17657878994941711,-15632.0,9.584303855895996,2713.0,3951.240966796875,2286.0,1674.7252197265625,52286.0,918.7232055664062,1.0884671211242676
932384.5580535,0.0,0.5902462102687454,-0.44604108328727365,53.21972841449816,280.3434278727061,207.15478685838374,nan,nan,nan,-1.3983344836707923,-161.06825606925716,-21.25841872476958,nan,nan,nan,0.10923612579633792,0.8828233678839267,0.4568264111663067,nan,6.977563469922168e-06,nan,0.24139357316791976,2779352.0,2495330560.0,1714317164544.0,-592.0,0.36296749114990234,256.0,0.1569589227437973,-15632.0,9.584303855895996,2712.0,3949.78466796875,2288.0,1676.1904296875,52286.0,918.7232055664062,1.0884671211242676
932384.6252135,0.1996658467181833,0.6155638975376775,0.24753986882370005,86.89960899106812,81.08626011183503,430.8194688698949,229.5937886028561,-177.31193078106352,27.249467447346227,nan,nan,nan,-0.28538835922357597,0.5167963817857971,0.8071400028450973,nan,nan,nan,61.550340498007095,nan,2.973812743694962,nan,2779672.0,2495330560.0,1714317164544.0,-640.0,0.39239731431007385,224.0,0.1373390555381775,-15664.0,9.603923797607422,2710.0,3946.871826171875,2289.0,1676.923095703125,52286.0,918.7232055664062,1.0884671211242676
932384.6925337,0.0,0.5902462102687454,-0.44604108328727365,53.21972841449816,280.3434278727061,207.15478685838374,nan,nan,nan,-1.3983344836707923,-161.06825606925716,-21.25841872476958,nan,nan,nan,0.10923612579633792,0.8828233678839267,0.4568264111663067,nan,6.977563469922168e-06,nan,0.24139357316791976,2779992.0,2495330560.0,1714317164544.0,-640.0,0.39239731431007385,256.0,0.1569589227437973,-15616.0,9.574494361877441,2698.0,3929.394775390625,2258.0,1654.21240234375,52286.0,918.7232055664062,1.0884671211242676
932384.7606564,0.14171654489609747,0.5950357655820611,0.29982542826561187,72.44911674429972,60.187186844336054,438.2235800549693,229.5937886028561,-177.31193078106352,27.249467447346227,nan,nan,nan,-0.31428934371711276,0.47499823525079926,0.8219482252152461,nan,nan,nan,61.21926830599751,nan,3.0012535355096084,nan,2780312.0,2495330560.0,1714317164544.0,-656.0,0.40220722556114197,272.0,0.1667688488960266,-15632.0,9.584303855895996,2703.0,3936.677001953125,2263.0,1657.87548828125,52287.0,918.3486328125,1.0889110565185547
932384.8282833,0.0,0.5902462102687454,-0.44604108328727365,53.21972841449816,280.3434278727061,207.15478685838374,nan,nan,nan,-1.3983344836707923,-161.06825606925716,-21.25841872476958,nan,nan,nan,0.10923612579633792,0.8828233678839267,0.4568264111663067,nan,0.0,nan,0.24139357316791976,2780632.0,2495330560.0,1714317164544.0,-624.0,0.38258737325668335,288.0,0.17657878994941711,-15552.0,9.53525447845459,2713.0,3951.240966796875,2282.0,1671.794921875,52286.0,918.7232055664062,1.0884671211242676
932384.8953063,0.0,0.5902462102687454,-0.44604108328727365,53.21972841449816,280.3434278727061,207.15478685838374,nan,nan,nan,-1.3983344836707923,-161.06825606925716,-21.25841872476958,nan,nan,nan,0.10923612579633792,0.8828233678839267,0.4568264111663067,nan,0.0,nan,0.24139357316791976,2780952.0,2495330560.0,1714317164544.0,-624.0,0.38258737325668335,272.0,0.1667688488960266,-15600.0,9.56468391418457,2698.0,3929.394775390625,2258.0,1654.21240234375,52287.0,918.3486328125,1.0889110565185547
932384.9623164,0.0,0.5902462102687454,-0.44604108328727365,53.21972841449816,280.3434278727061,207.15478685838374,nan,nan,nan,-1.3983344836707923,-161.06825606925716,-21.25841872476958,nan,nan,nan,0.10923612579633792,0.8828233678839267,0.4568264111663067,nan,6.977563469922168e-06,nan,0.24139357316791976,2781272.0,2495330560.0,1714317164544.0,-624.0,0.38258737325668335,272.0,0.1667688488960266,-15648.0,9.594114303588867,2705.0,3939.58984375,2263.0,1657.87548828125,52286.0,918.7232055664062,1.0884671211242676
932385.0293488,0.16323677534526188,0.6410532152965109,0.26595080989094566,108.33452756539644,75.83437182585601,441.02856441708826,229.5937886028561,-177.31193078106352,27.249467447346227,nan,nan,nan,-0.24251852207491925,0.506292605213839,0.827558193939484,nan,nan,nan,62.90665505719996,nan,3.0489882758938975,nan,2781592.0,2495330560.0,1714317164544.0,-608.0,0.37277743220329285,336.0,0.20600858330726624,-15536.0,9.525444984436035,2702.0,3935.220458984375,2256.0,1652.7471923828125,52285.0,919.09814453125,1.088023066520691
932385.0965597,0.1650025962252014,0.6287094380500345,0.26824477746927533,98.26863983278334,74.17118640352084,438.96532464942544,229.5937886028561,-177.31193078106352,27.249467447346227,nan,nan,nan,-0.2626502975401455,0.5029662343691687,0.8234317144041585,nan,nan,nan,62.01769010304419,nan,3.012085573671002,nan,2781912.0,2495330560.0,1714317164544.0,-624.0,0.38258737325668335,288.0,0.17657878994941711,-15584.0,9.554874420166016,2712.0,3949.78466796875,2276.0,1667.3992919921875,52286.0,918.7232055664062,1.0884671211242676
932385.1639398,0.14037220982891657,0.6250109864812758,0.2600543801311217,94.93626297553061,77.0431592226596,436.11477409627685,229.5937886028561,-177.31193078106352,27.249467447346227,nan,nan,nan,-0.26931505125465094,0.5087101800074462,0.8177306132978613,nan,nan,nan,62.888570106379426,nan,3.0465614536953245,nan,2782232.0,2495330560.0,1714317164544.0,-640.0,0.39239731431007385,272.0,0.1667688488960266,-15568.0,9.545063972473145,2720.0,3961.435791015625,2300.0,1684.981689453125,52284.0,919.473388671875,1.0875791311264038
932385.2313551,0.0,0.5902462102687454,-0.44604108328727365,53.21972841449816,280.3434278727061,207.15478685838374,nan,nan,nan,-1.3983344836707923,-161.06825606925716,-21.25841872476958,nan,nan,nan,0.10923612579633792,0.8828233678839267,0.4568264111663067,nan,6.977563469922168e-06,nan,0.24139357316791976,2782552.0,2495330560.0,1714317164544.0,-624.0,0.38258737325668335,224.0,0.1373390555381775,-15584.0,9.554874420166016,2713.0,3951.240966796875,2302.0,1686.4468994140625,52286.0,918.7232055664062,1.0884671211242676
932385.2989435,0.12045010300998621,0.6748423359954169,0.29679573702710393,138.8808907825267,65.61845944603999,454.74916998893355,229.5937886028561,-177.31193078106352,27.249467447346227,nan,nan,nan,-0.1814257956406588,0.48586078045420716,0.8549994050831746,nan,nan,nan,66.96979633672099,nan,3.267060073181791,nan,2782872.0,2495330560.0,1714317164544.0,-624.0,0.38258737325668335,240.0,0.1471489816904068,-15600.0,9.56468391418457,2697.0,3927.9384765625,2265.0,1659.3406982421875,52285.0,919.09814453125,1.088023066520691
932385.3658214,0.0,0.5902462102687454,-0.44604108328727365,53.21972841449816,280.3434278727061,207.15478685838374,nan,nan,nan,-1.3983344836707923,-161.06825606925716,-21.25841872476958,nan,nan,nan,0.10923612579633792,0.8828233678839267,0.4568264111663067,nan,6.977563469922168e-06,nan,0.24139357316791976,2783192.0,2495330560.0,1714317164544.0,-672.0,0.41201716661453247,256.0,0.1569589227437973,-15632.0,9.584303855895996,2696.0,3926.48193359375,2241.0,1641.75830078125,52285.0,919.09814453125,1.088023066520691
932385.433328,0.0,0.5902462102687454,-0.44604108328727365,53.21972841449816,280.3434278727061,207.15478685838374,nan,nan,nan,-1.3983344836707923,-161.06825606925716,-21.25841872476958,nan,nan,nan,0.10923612579633792,0.8828233678839267,0.4568264111663067,nan,6.977563469922168e-06,nan,0.24139357316791976,2783512.0,2495330560.0,1714317164544.0,-656.0,0.40220722556114197,256.0,0.1569589227437973,-15664.0,9.603923797607422,2702.0,3935.220458984375,2249.0,1647.6190185546875,52286.0,918.7232055664062,1.0884671211242676
932385.5001595,0.12578376624685203,0.6424742269158438,0.2752999586888085,109.94040528216496,72.30685307664606,443.63093990416655,229.5937886028561,-177.31193078106352,27.249467447346227,nan,nan,nan,-0.23930676664138223,0.4992375677154192,0.8327629449136406,nan,nan,nan,61.39862100289354,nan,2.9862561685476394,nan,2783832.0,2495330560.0,1714317164544.0,-624.0,0.38258737325668335,224.0,0.1373390555381775,-15616.0,9.574494361877441,2713.0,3951.240966796875,2275.0,1666.6666259765625,52285.0,919.09814453125,1.088023066520691
932385.5670836,0.0,0.5902462102687454,-0.44604108328727365,53.21972841449816,280.3434278727061,207.15478685838374,nan,nan,nan,-1.3983344836707923,-161.06825606925716,-21.25841872476958,nan,nan,nan,0.10923612579633792,0.8828233678839267,0.4568264111663067,nan,0.0,nan,0.24139357316791976,2784152.0,2495330560.0,1714317164544.0,-640.0,0.39239731431007385,256.0,0.1569589227437973,-15488.0,9.496014595031738,2712.0,3949.78466796875,2284.0,1673.2601318359375,52285.0,919.09814453125,1.088023066520691
932385.634174,0.0,0.5902462102687454,-0.44604108328727365,53.21972841449816,280.3434278727061,207.15478685838374,nan,nan,nan,-1.3983344836707923,-161.06825606925716,-21.25841872476958,nan,nan,nan,0.10923612579633792,0.8828233678839267,0.4568264111663067,nan,6.977563469922168e-06,nan,0.24139357316791976,2784472.0,2495330560.0,1714317164544.0,-608.0,0.37277743220329285,256.0,0.1569589227437973,-15536.0,9.525444984436035,2713.0,3951.240966796875,2292.0,1679.120849609375,52285.0,919.09814453125,1.088023066520691
932385.7012208,0.0,0.5902462102687454,-0.44604108328727365,53.21972841449816,280.3434278727061,207.15478685838374,nan,nan,nan,-1.3983344836707923,-161.06825606925716,-21.25841872476958,nan,nan,nan,0.10923612579633792,0.8828233678839267,0.4568264111663067,nan,6.977563469922168e-06,nan,0.24139357316791976,2784792.0,2495330816.0,1714317164544.0,-656.0,0.40220722556114197,240.0,0.1471489816904068,-15552.0,9.53525447845459,2709.0,3945.415283203125,2289.0,1676.923095703125,52285.0,919.09814453125,1.088023066520691
932385.7683023,0.0,0.5902462102687454,-0.44604108328727365,53.21972841449816,280.3434278727061,207.15478685838374,nan,nan,nan,-1.3983344836707923,-161.06825606925716,-21.25841872476958,nan,nan,nan,0.10923612579633792,0.8828233678839267,0.4568264111663067,nan,6.977563469922168e-06,nan,0.24139357316791976,2785112.0,2495330816.0,1714317164544.0,-592.0,0.36296749114990234,288.0,0.17657878994941711,-15568.0,9.545063972473145,2700.0,3932.3076171875,2263.0,1657.87548828125,52286.0,918.7232055664062,1.0884671211242676
932385.8353456,0.0,0.5902462102687454,-0.44604108328727365,53.21972841449816,280.3434278727061,207.15478685838374,nan,nan,nan,-1.3983344836707923,-161.06825606925716,-21.25841872476958,nan,nan,nan,0.10923612579633792,0.8828233678839267,0.4568264111663067,nan,6.977563469922168e-06,nan,0.24139357316791976,2785432.0,2495330816.0,1714317164544.0,-608.0,0.37277743220329285,240.0,0.1471489816904068,-15552.0,9.53525447845459,2711.0,3948.328125,2280.0,1670.3297119140625,52285.0,919.09814453125,1.088023066520691
932385.9026534,0.0,0.5902462102687454,-0.44604108328727365,53.21972841449816,280.3434278727061,207.15478685838374,nan,nan,nan,-1.3983344836707923,-161.06825606925716,-21.25841872476958,nan,nan,nan,0.10923612579633792,0.8828233678839267,0.4568264111663067,nan,6.977563469922168e-06,nan,0.24139357316791976,2785752.0,2495330816.0,1714317164544.0,-624.0,0.38258737325668335,288.0,0.17657878994941711,-15600.0,9.56468391418457,2686.0,3911.91796875,2467.0,1807.3260498046875,52286.0,918.7232055664062,1.0884671211242676
932385.9703111,0.19009372343461525,0.6764517767888119,0.32789317114282635,142.08620316053478,52.861924523181244,462.4073914524543,229.5937886028561,-177.31193078106352,27.249467447346227,nan,nan,nan,-0.1750151708846426,0.4603477106084896,0.8703158480102162,nan,nan,nan,58.87283453479025,nan,2.9120611097475604,nan,2786072.0,2495330816.0,1714317164544.0,-640.0,0.39239731431007385,240.0,0.1471489816904068,-15568.0,9.545063972473145,2706.0,3941.046142578125,2361.0,1729.6702880859375,52284.0,919.473388671875,1.0875791311264038
932386.0374742,0.7298209114085816,0.9288485266634836,-1.5564869760183475,121.84340836459413,318.9693843884035,44.88790818431738,nan,nan,nan,-1.3983344836707923,-161.06825606925716,-21.25841872476958,nan,nan,nan,0.2464834856965299,0.9600752809153213,0.13229265381817393,nan,32.78044408432091,nan,0.6850237122756324,2786392.0,2495330816.0,1714317164544.0,-624.0,0.38258737325668335,256.0,0.1569589227437973,-15632.0,9.584303855895996,2698.0,3929.394775390625,2296.0,1682.05126953125,52286.0,918.7232055664062,1.0884671211242676
932386.1042782,0.0,0.5902462102687454,-0.44604108328727365,53.21972841449816,280.3434278727061,207.15478685838374,nan,nan,nan,-1.3983344836707923,-161.06825606925716,-21.25841872476958,nan,nan,nan,0.10923612579633792,0.8828233678839267,0.4568264111663067,nan,6.977563469922168e-06,nan,0.24139357316791976,2786712.0,2495330816.0,1714317164544.0,-656.0,0.40220722556114197,240.0,0.1471489816904068,-15616.0,9.574494361877441,2697.0,3927.9384765625,2262.0,1657.142822265625,52286.0,918.7232055664062,1.0884671211242676
932386.171157,0.17967143461489374,0.6525666365912162,0.2938144160347793,119.34527627502425,65.6056658960294,450.1398867690957,229.5937886028561,-177.31193078106352,27.249467447346227,nan,nan,nan,-0.22049702465566368,0.48583519335418585,0.845780838643499,nan,nan,nan,60.01578695188681,nan,2.9363403756083897,nan,2787032.0,2495330816.0,1714317164544.0,-624.0,0.38258737325668335,256.0,0.1569589227437973,-15632.0,9.584303855895996,2710.0,3946.871826171875,2274.0,1665.93408203125,52286.0,918.7232055664062,1.0884671211242676
932386.238301,0.7535489773524496,0.6960750061459567,-0.8683007691546221,86.65309566098503,320.3764381150535,81.0057103296372,nan,nan,nan,-1.3983344836707923,-161.06825606925716,-21.25841872476958,nan,nan,nan,0.17610286028931166,0.9628893883686214,0.2045282581088136,nan,22.55862657324411,nan,0.5530646238545955,2787352.0,2495330816.0,1714317164544.0,-624.0,0.38258737325668335,272.0,0.1667688488960266,-15616.0,9.574494361877441,2712.0,3949.78466796875,2285.0,1673.99267578125,52285.0,919.09814453125,1.088023066520691
932386.3052813,0.23268738055498608,0.6392174981580308,0.3265956589438693,109.5006935910327,51.777920477653936,455.1460537631755,229.5937886028561,-177.31193078106352,27.249467447346227,nan,nan,nan,-0.24018619002364675,0.45817970251743495,0.8557931726316585,nan,nan,nan,60.349798893997644,nan,2.9860650204810097,nan,2787672.0,2495330816.0,1714317164544.0,-656.0,0.40220722556114197,288.0,0.17657878994941711,-15632.0,9.584303855895996,2711.0,3948.328125,2290.0,1677.6556396484375,52285.0,919.09814453125,1.088023066520691
932386.3721403,0.7846314948433991,0.5819417067541526,-0.45850756853054886,48.4320830293233,283.3321793708438,202.40468165419185,nan,nan,nan,-1.3983344836707923,-161.06825606925716,-21.25841872476958,nan,nan,nan,0.0996608350259882,0.8888008708802019,0.44732620075792284,nan,46.98454548071997,nan,0.9681474490152437,2787992.0,2495330816.0,1714317164544.0,-672.0,0.41201716661453247,256.0,0.1569589227437973,-15616.0,9.574494361877441,2696.0,3926.48193359375,2255.0,1652.0146484375,52286.0,918.7232055664062,1.0884671211242676
932386.4393008,0.0,0.5902462102687454,-0.44604108328727365,53.21972841449816,280.3434278727061,207.15478685838374,nan,nan,nan,-1.3983344836707923,-161.06825606925716,-21.25841872476958,nan,nan,nan,0.10923612579633792,0.8828233678839267,0.4568264111663067,nan,6.977563469922168e-06,nan,0.24139357316791976,2788312.0,2495330816.0,1714317164544.0,-688.0,0.421827107667923,208.0,0.12752912938594818,-15632.0,9.584303855895996,2695.0,3925.025634765625,2241.0,1641.75830078125,52285.0,919.09814453125,1.088023066520691
932386.5069553,0.23311396336399126,0.6847858843829717,0.32446258189591404,149.407589886408,54.66732238651588,462.8591547078781,229.5937886028561,-177.31193078106352,27.249467447346227,nan,nan,nan,-0.16037239743289616,0.4639585063351589,0.8712193745210638,nan,nan,nan,59.51481389635059,nan,2.938259151801738,nan,2788632.0,2495330816.0,1714317164544.0,-720.0,0.4414469599723816,240.0,0.1471489816904068,-15536.0,9.525444984436035,2704.0,3938.13330078125,2249.0,1647.6190185546875,52286.0,918.7232055664062,1.0884671211242676
932386.5737797,0.0,0.6557201374549575,-0.43656236358900435,87.92815745881035,271.9531948583193,194.85524251726656,229.5937886028561,-177.31193078106352,27.249467447346227,nan,nan,nan,-0.28333126228809147,0.8985302512787657,0.3352115501398407,nan,nan,nan,0.0,nan,-0.006643319740718745,nan,2788952.0,2495330816.0,1714317164544.0,-640.0,0.39239731431007385,240.0,0.1471489816904068,-15552.0,9.53525447845459,2695.0,3925.025634765625,2240.0,1641.025634765625,52285.0,919.09814453125,1.088023066520691
932386.6415047,0.0,0.5902462102687454,-0.44604108328727365,53.21972841449816,280.3434278727061,207.15478685838374,nan,nan,nan,-1.3983344836707923,-161.06825606925716,-21.25841872476958,nan,nan,nan,0.10923612579633792,0.8828233678839267,0.4568264111663067,nan,6.977563469922168e-06,nan,0.24139357316791976,2789272.0,2495330816.0,1714317164544.0,-704.0,0.4316370189189911,256.0,0.1569589227437973,-15632.0,9.584303855895996,2687.0,3913.374267578125,2448.0,1793.4066162109375,52286.0,918.7232055664062,1.0884671211242676
932386.7090827,0.15689158398532008,0.717175146978646,0.3670932996030183,182.5501503461665,37.391662772062375,476.34774512712966,229.5937886028561,-177.31193078106352,27.249467447346227,nan,nan,nan,-0.0940872765133792,0.4294071871062518,0.8981965553595669,nan,nan,nan,62.8691762796248,nan,3.1464292838223784,nan,2789592.0,2495330816.0,1714317164544.0,-656.0,0.40220722556114197,240.0,0.1471489816904068,-15600.0,9.56468391418457,2711.0,3948.328125,2371.0,1736.996337890625,52286.0,918.7232055664062,1.0884671211242676
932386.7770901,0.0,0.5902462102687454,-0.44604108328727365,53.21972841449816,280.3434278727061,207.15478685838374,nan,nan,nan,-1.3983344836707923,-161.06825606925716,-21.25841872476958,nan,nan,nan,0.10923612579633792,0.8828233678839267,0.4568264111663067,nan,6.977563469922168e-06,nan,0.24139357316791976,2789912.0,2495330816.0,1714317164544.0,-656.0,0.40220722556114197,304.0,0.18638871610164642,-15552.0,9.53525447845459,2711.0,3948.328125,2332.0,1708.4249267578125,52286.0,918.7232055664062,1.0884671211242676
932386.8439398,0.17813763625483225,0.6856765798556699,0.3682872831697418,152.87068205471218,35.93710863428788,472.9381616163054,229.5937886028561,-177.31193078106352,27.249467447346227,nan,nan,nan,-0.1534462130962879,0.42649807883070284,0.8913773883379185,nan,nan,nan,56.875142980902304,nan,2.855953447904003,nan,2790232.0,2495330816.0,1714317164544.0,-624.0,0.38258737325668335,320.0,0.19619865715503693,-15568.0,9.545063972473145,2700.0,3932.3076171875,2283.0,1672.5274658203125,52286.0,918.7232055664062,1.0884671211242676
932386.9112836,0.8849753141403198,0.8583982535729995,0.4744251862429162,345.5473003007823,-14.115938072472602,485.4217615559887,229.5937886028561,-177.31193078106352,27.249467447346227,nan,nan,nan,0.23190702339585242,0.3263919854171819,0.9163445882172849,nan,nan,nan,18.08137994594468,nan,0.8509244347233165,nan,2790552.0,2495330816.0,1714317164544.0,-576.0,0.35315757989883423,288.0,0.17657878994941711,-15632.0,9.584303855895996,2713.0,3951.240966796875,2293.0,1679.853515625,52286.0,918.7232055664062,1.0884671211242676
932386.97834,0.14957321422513994,0.7847724410819591,0.3985339313973768,253.8880140417848,24.396838687021443,484.11198826733363,229.5937886028561,-177.31193078106352,27.249467447346227,nan,nan,nan,0.04858845087785734,0.40341753893616994,0.9137250416399748,nan,nan,nan,35.30832906089209,nan,1.8240578110857042,nan,2790872.0,2495330816.0,1714317164544.0,-640.0,0.39239731431007385,240.0,0.1471489816904068,-15680.0,9.613734245300293,2714.0,3952.697509765625,2298.0,1683.5164794921875,52285.0,919.09814453125,1.088023066520691
932387.045356,0.9526894105470183,0.9703209464960356,0.7734550956332711,535.1606821431434,-206.28583172672916,421.9511100029978,229.5937886028561,-177.31193078106352,27.249467447346227,nan,nan,nan,0.6111337870805746,-0.05794780189133135,0.7894032851113032,nan,nan,nan,22.416757301022418,nan,0.9376526326158499,nan,2791192.0,2495330816.0,1714317164544.0,-624.0,0.38258737325668335,240.0,0.1471489816904068,-15632.0,9.584303855895996,2708.0,3943.958984375,2287.0,1675.4578857421875,52286.0,918.7232055664062,1.0884671211242676
932387.1122389,0.7306149867807237,0.8931277882079707,0.4318838569580067,70.13432763042451,1.597727713747739,85.53602474641076,21.356264136618954,24.080064303622358,-15.309597732322729,-33.064545549394346,20.807836434069905,-3.972169799205231,0.6829309095167013,-0.4056160153061044,0.6075203872742786,0.2596454863493793,0.7743469256243577,0.5770364461578662,46.8469597744059,20.435514940088684,2.0180751122805933,0.5243476063556116,2791512.0,2495330816.0,1714317164544.0,-640.0,0.39239731431007385,256.0,0.1569589227437973,-15616.0,9.574494361877441,2704.0,3938.13330078125,2268.0,1661.5384521484375,52286.0,918.7232055664062,1.0884671211242676
932387.1792815,0.019280004618664377,0.872635001970955,0.800331926585298,404.0621262103536,-212.0611918741129,494.4726108119217,229.5100586979272,-177.26346173419785,27.224610597638446,nan,nan,nan,0.34910413502485294,-0.06959546027983009,0.9344960004285666,nan,nan,nan,28.154906365755025,nan,1.6947349636825049,nan,2791832.0,2495330816.0,1714317164544.0,-640.0,0.39239731431007385,240.0,0.1471489816904068,-15600.0,9.56468391418457,2694.0,3923.5693359375,2243.0,1643.223388671875,52286.0,918.7232055664062,1.0884671211242676
932387.2463964,0.0,0.5902462102687454,-0.44604108328727365,53.21972841449816,280.3434278727061,207.15478685838374,nan,nan,nan,-1.3983344836707923,-161.06825606925716,-21.25841872476958,nan,nan,nan,0.10923612579633792,0.8828233678839267,0.4568264111663067,nan,6.977563469922168e-06,nan,0.24139357316791976,2792152.0,2495330816.0,1714317164544.0,-592.0,0.36296749114990234,256.0,0.1569589227437973,-15616.0,9.574494361877441,2711.0,3948.328125,2272.0,1664.4688720703125,52287.0,918.3486328125,1.0889110565185547
932387.3132883,0.03138563507078354,0.8702342263297733,0.8194159125113591,403.1767425367609,-224.48560786140848,493.711429103331,229.5100586979272,-177.26346173419785,27.224610597638446,nan,nan,nan,0.3473333676776674,-0.09444429225442126,0.932973637011385,nan,nan,nan,26.073783304751124,nan,1.5850566819523326,nan,2792472.0,2495330816.0,1714317164544.0,-640.0,0.39239731431007385,272.0,0.1667688488960266,-15600.0,9.56468391418457,2710.0,3946.871826171875,2280.0,1670.3297119140625,52286.0,918.7232055664062,1.0884671211242676
932387.3801216,0.04120421881657758,0.8702585527540949,0.82230778165176,403.5561958840764,-226.43243406989163,493.3687452706298,229.5100586979272,-177.26346173419785,27.224610597638446,nan,nan,nan,0.3480922743722984,-0.09833794467138747,0.9322882693459827,nan,nan,nan,26.51385842605927,nan,1.610796125595693,nan,2792792.0,2495330816.0,1714317164544.0,-624.0,0.38258737325668335,272.0,0.1667688488960266,-15600.0,9.56468391418457,2713.0,3951.240966796875,2293.0,1679.853515625,52287.0,918.3486328125,1.0889110565185547
932387.4474801,0.0,0.5902462102687454,-0.44604108328727365,53.21972841449816,280.3434278727061,207.15478685838374,nan,nan,nan,-1.3983344836707923,-161.06825606925716,-21.25841872476958,nan,nan,nan,0.10923612579633792,0.8828233678839267,0.4568264111663067,nan,0.0,nan,0.24139357316791976,2793112.0,2495331072.0,1714317164544.0,-624.0,0.38258737325668335,240.0,0.1471489816904068,-15632.0,9.584303855895996,2705.0,3939.58984375,2277.0,1668.1318359375,52287.0,918.3486328125,1.0889110565185547
932387.5153143,0.1427242247308212,0.43459062545659055,0.03712620922452359,-38.457741608234514,148.40509622534273,369.7055752223947,nan,nan,nan,-1.3983344836707923,-161.06825606925716,-21.25841872476958,nan,nan,nan,-0.07411881424912745,0.6189467045891996,0.7819279878943286,nan,28.845393281758994,nan,0.7158724321763863,2793432.0,2495331072.0,1714317164544.0,-640.0,0.39239731431007385,240.0,0.1471489816904068,-15600.0,9.56468391418457,2705.0,3939.58984375,2274.0,1665.93408203125,52287.0,918.3486328125,1.0889110565185547
932387.5822853,0.7866546511650085,0.882203954540047,0.5161851135618378,379.888289435163,-37.61985502633695,483.16983847699566,229.5100586979272,-177.26346173419785,27.224610597638446,nan,nan,nan,0.3007564614744717,0.2792872134157218,0.9118904557587145,nan,nan,nan,64.99283835650289,nan,2.9616294974888158,nan,2793752.0,2495331072.0,1714317164544.0,-592.0,0.36296749114990234,224.0,0.1373390555381775,-15648.0,9.594114303588867,2704.0,3938.13330078125,2263.0,1657.87548828125,52287.0,918.3486328125,1.0889110565185547
932387.6493101,0.456864602729968,0.41674149899564883,0.04195295372645247,-49.98255380525888,146.88789489833707,369.64129055388423,nan,nan,nan,-1.3983344836707923,-161.06825606925716,-21.25841872476958,nan,nan,nan,-0.09716843864317619,0.6159123019351884,0.7817994185573076,nan,17.694182361764057,nan,0.5398544382029051,2794072.0,2495331072.0,1714317164544.0,-592.0,0.36296749114990234,256.0,0.1569589227437973,-15648.0,9.594114303588867,2720.0,3961.435791015625,2297.0,1682.783935546875,52286.0,918.7232055664062,1.0884671211242676
932387.7161986,0.7121896147727966,0.5887837109477742,0.2505007967612498,66.21094022747258,78.1668161139969,424.82839713037066,229.5100586979272,-177.26346173419785,27.224610597638446,nan,nan,nan,-0.3265982369409092,0.5108605556963894,0.7952075730654644,nan,nan,nan,65.1040814063351,nan,3.1152373924767023,nan,2794392.0,2495331072.0,1714317164544.0,-640.0,0.39239731431007385,208.0,0.12752912938594818,-15632.0,9.584303855895996,2711.0,3948.328125,2298.0,1683.5164794921875,52287.0,918.3486328125,1.0889110565185547
932387.7842102,0.7485953569412231,0.592360903729697,0.24142675706818972,68.67674192639744,81.70014006066833,423.5458151296427,229.5100586979272,-177.26346173419785,27.224610597638446,nan,nan,nan,-0.3216666335430595,0.5179272035897324,0.7926424090640084,nan,nan,nan,65.41204690617666,nan,3.1216735036084238,nan,2794712.0,2495331072.0,1714317164544.0,-592.0,0.36296749114990234,256.0,0.1569589227437973,-15600.0,9.56468391418457,2714.0,3952.697509765625,2300.0,1684.981689453125,52287.0,918.3486328125,1.0889110565185547
932387.8514646,0.7708821892738342,0.5860130420368003,0.2243778059748528,63.41074628263834,87.3258626851457,417.6135292652713,229.5100586979272,-177.26346173419785,27.224610597638446,nan,nan,nan,-0.3321986248305777,0.529178648838687,0.7807778373352657,nan,nan,nan,65.01090342917912,nan,3.086146296519151,nan,2795032.0,2495331072.0,1714317164544.0,-560.0,0.3433476388454437,288.0,0.17657878994941711,-15632.0,9.584303855895996,2712.0,3949.78466796875,2297.0,1682.783935546875,52288.0,917.9743041992188,1.0893551111221313
932387.919333,0.7995230257511139,0.5868577351883363,-0.10425392329940064,10.215103489001319,34.42208260683543,59.31349699805543,21.275380242704543,24.133882689778886,-15.286377364590678,-33.064545549394346,20.807836434069905,-3.972169799205231,-0.13195198974462272,0.003752750403805634,0.9912490046738215,0.5388351247943908,0.30352768991326057,0.7858292751887861,64.45874882513844,52.63901302337219,3.0580375544462535,1.0368337853396126,2795352.0,2495331072.0,1714317164544.0,-592.0,0.36296749114990234,272.0,0.1667688488960266,-15600.0,9.56468391418457,2699.0,3930.851318359375,2268.0,1661.5384521484375,52287.0,918.3486328125,1.0889110565185547
932387.9861842,0.7576568126678467,0.5814148929733839,0.2513879627439959,60.665900360934046,77.34677807170306,423.03425674266873,229.5100586979272,-177.26346173419785,27.224610597638446,nan,nan,nan,-0.3376883166739863,0.509220479611802,0.7916192922900605,nan,nan,nan,64.19617622786771,nan,3.046102938930074,nan,2795672.0,2495331072.0,1714317164544.0,-544.0,0.3335376977920532,208.0,0.12752912938594818,-15568.0,9.545063972473145,2714.0,3952.697509765625,2289.0,1676.923095703125,52288.0,917.9743041992188,1.0893551111221313
932388.0533135,0.15546554742439567,0.5622326538873764,-0.16564689116452258,40.79905689572752,208.38019441495874,312.9978042473475,nan,nan,nan,-1.3983344836707923,-161.06825606925716,-21.25841872476958,nan,nan,nan,0.08439478275879664,0.7388969009684319,0.6685124459442342,nan,36.442434764325206,nan,0.7545091032808484,2795992.0,2495331072.0,1714317164544.0,-672.0,0.41201716661453247,256.0,0.1569589227437973,-15632.0,9.584303855895996,2711.0,3948.328125,2294.0,1680.5860595703125,52287.0,918.3486328125,1.0889110565185547
932388.1204029,0.15378745533297597,0.558000716759537,-0.1551645074798671,38.427079062634725,205.77977017918727,316.99342796926715,nan,nan,nan,-1.6717919346575645,-161.57313350037617,-19.820949251978895,nan,nan,nan,0.08019774199458457,0.7347058073591269,0.6736287544424922,nan,38.62853931509936,nan,0.7634985133917027,2796312.0,2495331072.0,1714317164544.0,-624.0,0.38258737325668335,256.0,0.1569589227437973,-15680.0,9.613734245300293,2714.0,3952.697509765625,2299.0,1684.2490234375,52287.0,918.3486328125,1.0889110565185547
932388.1872569,0.062134794444549994,0.920857406579626,0.7457227016659174,461.8289730783508,-181.6730551792097,469.95305728561794,229.5100586979272,-177.26346173419785,27.224610597638446,nan,nan,nan,0.46463782876084736,-0.008819186890023718,0.8854568933759589,nan,nan,nan,26.533136150999365,nan,1.5690367464836834,nan,2796632.0,2495331072.0,1714317164544.0,-624.0,0.38258737325668335,288.0,0.17657878994941711,-15600.0,9.56468391418457,2706.0,3941.046142578125,2285.0,1673.99267578125,52287.0,918.3486328125,1.0889110565185547
932388.2545159,0.11969656526997742,0.9103463769737029,0.7770122475781838,451.8050187161633,-201.36788943071753,474.44259694871766,229.5100586979272,-177.26346173419785,27.224610597638446,nan,nan,nan,0.44458992003647224,-0.04820885539303934,0.8944359727021584,nan,nan,nan,18.389515612450708,nan,1.1296946810913768,nan,2796952.0,2495331072.0,1714317164544.0,-592.0,0.36296749114990234,288.0,0.17657878994941711,-15632.0,9.584303855895996,2698.0,3929.394775390625,2257.0,1653.4798583984375,52287.0,918.3486328125,1.0889110565185547
932388.322265,0.7528256773948669,0.5909289761848414,0.26889516498646915,68.36665878389147,71.56879673193026,429.8600683144064,229.5100586979272,-177.26346173419785,27.224610597638446,nan,nan,nan,-0.32228679982807146,0.49766451693225616,0.8052709154335359,nan,nan,nan,63.747262618479716,nan,3.0276860765551943,nan,2797272.0,2495331072.0,1714317164544.0,-656.0,0.40220722556114197,272.0,0.1667688488960266,-15584.0,9.554874420166016,2712.0,3949.78466796875,2276.0,1667.3992919921875,52289.0,917.600341796875,1.0897990465164185
932388.3893003,0.7498115301132202,0.5919199399945694,0.27229660058799154,69.22670538459809,70.3700435652957,430.94096362748564,229.5100586979272,-177.26346173419785,27.224610597638446,nan,nan,nan,-0.3205667066266582,0.49526701059898703,0.8074327060596945,nan,nan,nan,64.09637312199196,nan,3.0467267564109046,nan,2797592.0,2495331072.0,1714317164544.0,-624.0,0.38258737325668335,272.0,0.1667688488960266,-15632.0,9.584303855895996,2714.0,3952.697509765625,2289.0,1676.923095703125,52287.0,918.3486328125,1.0889110565185547
932388.4562688,0.756407618522644,0.5900311845157812,0.26947218723564537,67.69334483822352,71.299885943275,429.75611657824436,229.5100586979272,-177.26346173419785,27.224610597638446,nan,nan,nan,-0.32363342771940734,0.49712669535494564,0.8050630119612119,nan,nan,nan,63.94814807539751,nan,3.0374724711512027,nan,2797912.0,2495331072.0,1714317164544.0,-624.0,0.38258737325668335,224.0,0.1373390555381775,-15696.0,9.623543739318848,2703.0,3936.677001953125,2277.0,1668.1318359375,52288.0,917.9743041992188,1.0893551111221313
932388.5233029,0.7974136769771576,0.5541982028663469,0.02344715606588499,8.05305140260886,32.2824233988885,77.443673126504,21.275380242704543,24.133882689778886,-15.286377364590678,-33.09767878648873,19.687358770648167,-2.9047286169702335,-0.12606898949791584,-0.04135392946343383,0.9911591508960141,0.434328119221278,0.2643345615934645,0.8610960018493281,63.99224731869481,50.2177150479511,3.04384662663693,0.9016861126781683,2798232.0,2495331072.0,1714317164544.0,-608.0,0.37277743220329285,272.0,0.1667688488960266,-15664.0,9.603923797607422,2698.0,3929.394775390625,2255.0,1652.0146484375,52288.0,917.9743041992188,1.0893551111221313
932388.5903306,0.8776026368141174,0.6059849693006659,0.12295886426702851,12.021436069680572,19.748945335319764,63.16086602168274,21.275380242704543,24.133882689778886,-15.286377364590678,-33.09767878648873,19.687358770648167,-2.9047286169702335,-0.11819942702806634,-0.03785662138665173,0.9922679938743487,0.5651297208612004,-0.016791485028795818,0.8248311612868839,63.95050647138215,49.63076843175966,3.0607518028486425,0.8773327522171321,2798552.0,2495331072.0,1714317164544.0,-592.0,0.36296749114990234,272.0,0.1667688488960266,-15600.0,9.56468391418457,2698.0,3929.394775390625,2243.0,1643.223388671875,52288.0,917.9743041992188,1.0893551111221313
932388.6572366,0.13438283291865322,0.5538082158797024,-0.12602084619543907,36.2038198983112,197.55347491284206,326.0020071258435,nan,nan,nan,-1.6717919346575645,-161.57313350037617,-19.820949251978895,nan,nan,nan,0.07575122366593752,0.7182532168264365,0.6916459127556448,nan,40.16737839220607,nan,0.7899782321616868,2798872.0,2495331072.0,1714317164544.0,-656.0,0.40220722556114197,240.0,0.1471489816904068,-15648.0,9.594114303588867,2698.0,3929.394775390625,2241.0,1641.75830078125,52289.0,917.600341796875,1.0897990465164185
932388.7252928,0.1318988775443859,0.5672767477163848,-0.1513057769149766,44.095666297474,204.68854579188482,317.4589375616036,nan,nan,nan,-1.6717919346575645,-161.57313350037617,-19.820949251978895,nan,nan,nan,0.09153491646426311,0.7325233585845219,0.674559773627165,nan,40.62262861965538,nan,0.7889298632607211,2799192.0,2495331072.0,1714317164544.0,-624.0,0.38258737325668335,240.0,0.1471489816904068,-15648.0,9.594114303588867,2715.0,3954.15380859375,2279.0,1669.5970458984375,52287.0,918.3486328125,1.0889110565185547
932388.7921658,0.8521693935038896,0.5561097681074969,0.014196890452663813,8.335691889600817,33.08342001482697,77.36951621841095,21.275380242704543,24.133882689778886,-15.286377364590678,-33.09767878648873,19.687358770648167,-2.9047286169702335,-0.12444313162480797,-0.020240941706210356,0.9920202675703034,0.43831523018173135,0.26051512338213145,0.8602392861756132,64.68310236377387,47.3085843697221,3.090354613841437,0.8626334438823116,2799512.0,2495331072.0,1714317164544.0,-672.0,0.41201716661453247,256.0,0.1569589227437973,-15632.0,9.584303855895996,2706.0,3941.046142578125,2275.0,1666.6666259765625,52289.0,917.600341796875,1.0897990465164185
932388.859164,0.12974216005946668,0.5673239126688786,-0.12863378555072513,44.42553417264114,198.28261417889857,324.2413668884951,nan,nan,nan,-1.6717919346575645,-161.57313350037617,-19.820949251978895,nan,nan,nan,0.09219465221459741,0.7197114953585495,0.688124632280948,nan,38.52995224162446,nan,0.7665245982044295,2799832.0,2495331072.0,1714317164544.0,-624.0,0.38258737325668335,288.0,0.17657878994941711,-15664.0,9.603923797607422,2713.0,3951.240966796875,2289.0,1676.923095703125,52289.0,917.600341796875,1.0897990465164185
932388.9261899,1.0,0.5841691267469625,0.2627876651427815,63.03899416953361,73.38770596954993,426.5507640155321,229.5100586979272,-177.26346173419785,27.224610597638446,nan,nan,nan,-0.33294212905678716,0.5013023354074955,0.7986523068357873,nan,nan,nan,64.55064026133341,nan,3.0726707070211816,nan,2800152.0,2495331072.0,1714317164544.0,-624.0,0.38258737325668335,240.0,0.1471489816904068,-15664.0,9.603923797607422,2713.0,3951.240966796875,2294.0,1680.5860595703125,52289.0,917.600341796875,1.0897990465164185
932388.9933107,0.13151208904685613,0.5614995273912806,-0.1271988294464137,40.888032705004704,197.88052034206672,325.1163378973787,nan,nan,nan,-1.6717919346575645,-161.57313350037617,-19.820949251978895,nan,nan,nan,0.08511964927932454,0.7189073076848858,0.6898745742987152,nan,34.96926906921142,nan,0.7209919344797413,2800472.0,2495331072.0,1714317164544.0,-608.0,0.37277743220329285,272.0,0.1667688488960266,-15696.0,9.623543739318848,2698.0,3929.394775390625,2265.0,1659.3406982421875,52290.0,917.2266235351562,1.0902431011199951
932389.0601867,0.10380241320955652,0.5614818448858647,-0.09147508767736023,41.33411073777382,187.6552182896713,335.5781032864554,nan,nan,nan,-1.7599685162212175,-161.3870706849487,-19.82642797420284,nan,nan,nan,0.08618815850799007,0.6980845779492401,0.7108090625213165,nan,31.20491197852548,nan,0.665569112201891,2800792.0,2495331072.0,1714317164544.0,-608.0,0.37277743220329285,224.0,0.1373390555381775,-15632.0,9.584303855895996,2712.0,3949.78466796875,2276.0,1667.3992919921875,52289.0,917.600341796875,1.0897990465164185
932389.1272662,0.8851712346076965,0.5877069656260188,0.25209272940184824,65.4367253823625,77.5160431923432,424.92719440129736,229.5100586979272,-177.26346173419785,27.224610597638446,nan,nan,nan,-0.32814666663112935,0.5095590098530822,0.7954051676073176,nan,nan,nan,63.23245221974719,nan,3.0126695364730267,nan,2801112.0,2495331072.0,1714317164544.0,-608.0,0.37277743220329285,304.0,0.18638871610164642,-15648.0,9.594114303588867,2712.0,3949.78466796875,2285.0,1673.99267578125,52289.0,917.600341796875,1.0897990465164185
932389.1943177,0.0865951850918054,0.5433966354667683,-0.1472138691370819,29.662633062823744,203.6348020027062,320.42590863732136,nan,nan,nan,-1.7599685162212175,-161.3870706849487,-19.82642797420284,nan,nan,nan,0.06284520315808995,0.7300437453753099,0.6805046732230484,nan,32.025022265160246,nan,0.6678499731995533,2801432.0,2495331328.0,1714317164544.0,-592.0,0.36296749114990234,272.0,0.1667688488960266,-15664.0,9.603923797607422,2712.0,3949.78466796875,2286.0,1674.7252197265625,52290.0,917.2266235351562,1.0902431011199951
932389.2612665,0.8920494318008423,0.5908807565287073,0.28139265878671893,68.70722633556741,66.94257085503239,432.96293151431496,229.4997721035665,-177.1365504190876,27.289245180705954,nan,nan,nan,-0.3215850915359981,0.48815824254823986,0.811347372667218,nan,nan,nan,63.2853310635762,nan,2.997706599274098,nan,2801752.0,2495331328.0,1714317164544.0,-576.0,0.35315757989883423,320.0,0.19619865715503693,-15664.0,9.603923797607422,2696.0,3926.48193359375,2252.0,1649.81689453125,52290.0,917.2266235351562,1.0902431011199951
932389.3281275,0.07468680498628642,0.5266500874042828,-0.14992263686393836,19.474439700465012,204.4165892326785,320.37466299782227,nan,nan,nan,-1.7599685162212175,-161.3870706849487,-19.82642797420284,nan,nan,nan,0.04246881643337244,0.7316073198352544,0.6804021819440502,nan,42.391517640448484,nan,0.7981973610378477,2802072.0,2495331328.0,1714317164544.0,-560.0,0.3433476388454437,288.0,0.17657878994941711,-15584.0,9.554874420166016,2699.0,3930.851318359375,2251.0,1649.084228515625,52290.0,917.2266235351562,1.0902431011199951
932389.3952359,0.04956863130570212,0.5551103722509247,-0.13491258338745094,36.91275164626101,200.1459715379632,323.3911125103716,nan,nan,nan,-1.7599685162212175,-161.3870706849487,-19.82642797420284,nan,nan,nan,0.07734544032496446,0.7230660844458238,0.686435080969149,nan,44.17351125652139,nan,0.8198354105205103,2802392.0,2495331328.0,1714317164544.0,-656.0,0.40220722556114197,208.0,0.12752912938594818,-15632.0,9.584303855895996,2712.0,3949.78466796875,2269.0,1662.2711181640625,52291.0,916.853271484375,1.0906870365142822
932389.4623012,0.08182852376456527,0.5435958456483909,-0.13955284656922107,29.852352988614065,201.47340234742975,322.7125307440624,nan,nan,nan,-1.7599685162212175,-161.3870706849487,-19.82642797420284,nan,nan,nan,0.06322464300967058,0.7257209460647569,0.6850779174365306,nan,36.40869929320448,nan,0.723708118500137,2802712.0,2495331328.0,1714317164544.0,-592.0,0.36296749114990234,272.0,0.1667688488960266,-15584.0,9.554874420166016,2712.0,3949.78466796875,2282.0,1671.794921875,52290.0,917.2266235351562,1.0902431011199951
932389.5291998,0.24038568339028044,0.6732705015274429,0.15219939921572345,129.50030321590782,120.7191583311897,416.23922009657633,229.4997721035665,-177.1365504190876,27.289245180705954,nan,nan,nan,-0.19999893777531738,0.5957114175005546,0.7778999498317408,nan,nan,nan,58.93440995021176,nan,2.687421659599922,nan,2803032.0,2495331328.0,1714317164544.0,-560.0,0.3433476388454437,240.0,0.1471489816904068,-15552.0,9.53525447845459,2705.0,3939.58984375,2273.0,1665.201416015625,52290.0,917.2266235351562,1.0902431011199951
932389.5960476,0.06796166474638174,0.5535629128329227,-0.09672684003479937,36.386574388883155,189.19179827785953,334.6299133446501,nan,nan,nan,-1.7599685162212175,-161.3870706849487,-19.82642797420284,nan,nan,nan,0.07629308581020874,0.7011577379256165,0.7089126826377058,nan,38.62546380134979,nan,0.7592906991550397,2803352.0,2495331328.0,1714317164544.0,-640.0,0.39239731431007385,304.0,0.18638871610164642,-15536.0,9.525444984436035,2697.0,3927.9384765625,2253.0,1650.5494384765625,52291.0,916.853271484375,1.0906870365142822
932389.6638143,0.25418073051240514,0.6745938403997745,0.17567759678582018,131.90914104835878,112.37512339037181,423.0910383275935,229.4997721035665,-177.1365504190876,27.289245180705954,nan,nan,nan,-0.19518126211041548,0.5790233476189188,0.791603586293775,nan,nan,nan,58.18050711091366,nan,2.6808010797100637,nan,2803672.0,2495331328.0,1714317164544.0,-592.0,0.36296749114990234,288.0,0.17657878994941711,-15600.0,9.56468391418457,2702.0,3935.220458984375,2253.0,1650.5494384765625,52291.0,916.853271484375,1.0906870365142822
932389.7316632,0.2841091478702793,0.6818199843405184,0.17931629294574836,138.2412775620876,111.71261908450708,425.0807036751117,229.4997721035665,-177.1365504190876,27.289245180705954,nan,nan,nan,-0.18251698908295777,0.5776983390071894,0.7955829169888115,nan,nan,nan,59.20326876084404,nan,2.728046075018061,nan,2803992.0,2495331328.0,1714317164544.0,-624.0,0.38258737325668335,256.0,0.1569589227437973,-15600.0,9.56468391418457,2702.0,3935.220458984375,2251.0,1649.084228515625,52291.0,916.853271484375,1.0906870365142822
932389.7992997,0.13858185693333663,0.583006684084865,-0.0725725013925913,54.93556704014507,182.0911664515106,339.072327751708,nan,nan,nan,-1.7599685162212175,-161.3870706849487,-19.82642797420284,nan,nan,nan,0.1133910711127326,0.6869564742729186,0.7177975114518216,nan,42.779013197072786,nan,0.8147519457355719,2804312.0,2495331328.0,1714317164544.0,-640.0,0.39239731431007385,256.0,0.1569589227437973,-15520.0,9.515634536743164,2713.0,3951.240966796875,2280.0,1670.3297119140625,52291.0,916.853271484375,1.0906870365142822
932389.8663079,0.23008317229098452,0.6707402819533659,0.2386431601254505,132.11134677778506,88.42492328321998,439.59083176220724,229.4997721035665,-177.1365504190876,27.289245180705954,nan,nan,nan,-0.1947768506515629,0.5311229474046153,0.8246031731630026,nan,nan,nan,56.948989332474795,nan,2.6952994022927177,nan,2804632.0,2495331328.0,1714317164544.0,-640.0,0.39239731431007385,240.0,0.1471489816904068,-15472.0,9.486205101013184,2687.0,3913.374267578125,2468.0,1808.05859375,52291.0,916.853271484375,1.0906870365142822
932389.9331793,0.237639810583393,0.667540241079556,0.22935159787274317,128.86855519027296,91.74743037899566,436.6482111906441,229.4997721035665,-177.1365504190876,27.289245180705954,nan,nan,nan,-0.20126243382658704,0.5377679615961666,0.8187179320198762,nan,nan,nan,57.46683713278286,nan,2.710602991847866,nan,2804952.0,2495331328.0,1714317164544.0,-576.0,0.35315757989883423,240.0,0.1471489816904068,-15648.0,9.594114303588867,2712.0,3949.78466796875,2375.0,1739.9267578125,52291.0,916.853271484375,1.0906870365142822
932390.0002523,0.7477374745146034,0.7281721081692311,-0.5690969805255381,122.3618681696498,300.41602487824326,126.22722855646855,nan,nan,nan,-1.7599685162212175,-161.3870706849487,-19.82642797420284,nan,nan,nan,0.24824367337174205,0.923606191126384,0.2921073130613428,nan,32.28253349611778,nan,0.6370566176133776,2805272.0,2495331328.0,1714317164544.0,-592.0,0.36296749114990234,288.0,0.17657878994941711,-15568.0,9.545063972473145,2710.0,3946.871826171875,2328.0,1705.4945068359375,52290.0,917.2266235351562,1.0902431011199951
932390.0674805,0.723496204682988,0.6816042717251737,-0.48315747902636996,103.08672368467174,289.2471844573501,169.7413415091055,nan,nan,nan,-1.7599685162212175,-161.3870706849487,-19.82642797420284,nan,nan,nan,0.20969338440178592,0.9012685102845976,0.3791355389666167,nan,13.024032237550712,nan,0.41643589759591926,2805592.0,2495331328.0,1714317164544.0,-608.0,0.37277743220329285,272.0,0.1667688488960266,-15648.0,9.594114303588867,2699.0,3930.851318359375,2285.0,1673.99267578125,52292.0,916.4801635742188,1.0911310911178589
932390.1352465,0.25380052356439475,0.6825340515395529,0.14515893544010838,136.8564593675742,124.17573366026426,415.3976373447831,229.4997721035665,-177.1365504190876,27.289245180705954,nan,nan,nan,-0.18528662547198466,0.6026245681587037,0.7762167843281543,nan,nan,nan,62.24635891923726,nan,2.8221913656214817,nan,2805912.0,2495331328.0,1714317164544.0,-608.0,0.37277743220329285,304.0,0.18638871610164642,-15632.0,9.584303855895996,2712.0,3949.78466796875,2290.0,1677.6556396484375,52292.0,916.4801635742188,1.0911310911178589
932390.2022945,0.26160673846406546,0.6744911446530693,0.1774785999174998,131.9229410409152,111.7075390397298,423.5818820344299,229.4997721035665,-177.1365504190876,27.289245180705954,nan,nan,nan,-0.19515366212530266,0.5776881789176348,0.7925852737074478,nan,nan,nan,60.305035802156766,nan,2.77851126413013,nan,2806232.0,2495331328.0,1714317164544.0,-592.0,0.36296749114990234,288.0,0.17657878994941711,-15664.0,9.603923797607422,2712.0,3949.78466796875,2288.0,1676.1904296875,52291.0,916.853271484375,1.0906870365142822
932390.2692928,0.27313083166217694,0.6579740851755245,0.2208064164610012,120.3440299870307,94.23691412158729,432.80307565530194,229.4997721035665,-177.1365504190876,27.289245180705954,nan,nan,nan,-0.21831148423307162,0.5427469290813498,0.811027660949192,nan,nan,nan,59.08728091210453,nan,2.779925286112261,nan,2806552.0,2495331328.0,1714317164544.0,-656.0,0.40220722556114197,304.0,0.18638871610164642,-15632.0,9.584303855895996,2708.0,3943.958984375,2282.0,1671.794921875,52292.0,916.4801635742188,1.0911310911178589
932390.3363283,0.13373018910071857,0.47707304924019056,-0.13182168778955572,-10.683977160758555,199.36428664878719,326.2643408301375,nan,nan,nan,-1.7599685162212175,-161.3870706849487,-19.82642797420284,nan,nan,nan,-0.01784801728907467,0.7215027146674718,0.6921815376086806,nan,43.4493475535244,nan,0.8229471503808146,2806872.0,2495331328.0,1714317164544.0,-608.0,0.37277743220329285,272.0,0.1667688488960266,-15552.0,9.53525447845459,2713.0,3951.240966796875,2291.0,1678.3883056640625,52291.0,916.853271484375,1.0906870365142822
932390.4043069,0.1840476510751654,0.4924291688074341,-0.10761342425738984,-1.314819226034139,192.4153209174139,333.47750568428035,nan,nan,nan,-1.7599685162212175,-161.3870706849487,-19.82642797420284,nan,nan,nan,0.0008902985803741765,0.7076047832047252,0.7066078673169663,nan,42.732076476143284,nan,0.8171401980250073,2807192.0,2495331328.0,1714317164544.0,-624.0,0.38258737325668335,288.0,0.17657878994941711,-15616.0,9.574494361877441,2704.0,3938.13330078125,2273.0,1665.201416015625,52292.0,916.4801635742188,1.0911310911178589
932390.4713136,0.10908746845609857,0.4955922751322781,-0.1543682494693881,0.617577673273054,205.703016994956,319.64259093809295,nan,nan,nan,-1.7599685162212175,-161.3870706849487,-19.82642797420284,nan,nan,nan,0.004755092378988557,0.7341801753598095,0.6789380378245916,nan,43.584325680029664,nan,0.816663510869243,2807512.0,2495331328.0,1714317164544.0,-672.0,0.41201716661453247,240.0,0.1471489816904068,-15552.0,9.53525447845459,2705.0,3939.58984375,2270.0,1663.003662109375,52293.0,916.1073608398438,1.0915751457214355
932390.5382162,0.2854835840895437,0.7088117641343695,0.13568594722594263,158.76339013851089,130.33746431538435,415.17594839384725,229.4997721035665,-177.1365504190876,27.289245180705954,nan,nan,nan,-0.1414727639301112,0.6149480294689438,0.7757734064262826,nan,nan,nan,61.540044483207524,nan,2.7708831770010853,nan,2807832.0,2495331328.0,1714317164544.0,-608.0,0.37277743220329285,272.0,0.1667688488960266,-15584.0,9.554874420166016,2712.0,3949.78466796875,2279.0,1669.5970458984375,52292.0,916.4801635742188,1.0911310911178589
932390.6052418,0.13697331692137868,0.514961350974956,-0.1611396904682556,12.336654556978274,207.5720194419376,317.32409483522764,nan,nan,nan,-1.7599685162212175,-161.3870706849487,-19.82642797420284,nan,nan,nan,0.028193246146398992,0.7379181802537726,0.674301045618861,nan,41.7573153058163,nan,0.7896230088556537,2808152.0,2495331328.0,1714317164544.0,-576.0,0.35315757989883423,288.0,0.17657878994941711,-15504.0,9.50582504272461,2706.0,3941.046142578125,2276.0,1667.3992919921875,52293.0,916.1073608398438,1.0915751457214355
932390.6721057,0.12170458960288749,0.48304938965396504,-0.11925571972566895,-7.059934582185363,195.77231957879366,330.0436626396297,nan,nan,nan,-1.7599685162212175,-161.3870706849487,-19.82642797420284,nan,nan,nan,-0.010599932131928298,0.7143187805274848,0.699740181227665,nan,36.346610738315405,nan,0.7344460662053995,2808472.0,2495331328.0,1714317164544.0,-592.0,0.36296749114990234,240.0,0.1471489816904068,-15600.0,9.56468391418457,2714.0,3952.697509765625,2289.0,1676.923095703125,52292.0,916.4801635742188,1.0911310911178589
932390.740266,0.28497316882841706,0.6911754660260678,0.15591489562820493,144.8354282784452,121.17840713329872,419.51384280964044,229.4997721035665,-177.1365504190876,27.289245180705954,nan,nan,nan,-0.1693286876502426,0.5966299151047727,0.7844491952578692,nan,nan,nan,63.337087384760004,nan,2.8808978113431243,nan,2808792.0,2495331328.0,1714317164544.0,-592.0,0.36296749114990234,256.0,0.1569589227437973,-15616.0,9.574494361877441,2698.0,3929.394775390625,2262.0,1657.142822265625,52294.0,915.7349243164062,1.0920190811157227
932390.8075007,0.13450314858822626,0.47585202161753976,-0.11636058615721145,-11.481317458390222,194.95145767643734,330.7849645674346,nan,nan,nan,-1.7599685162212175,-161.3870706849487,-19.82642797420284,nan,nan,nan,-0.019442697884338014,0.7126770567227722,0.701222785083275,nan,37.466967808284686,nan,0.7503399090808331,2809112.0,2495331328.0,1714317164544.0,-656.0,0.40220722556114197,272.0,0.1667688488960266,-15616.0,9.574494361877441,2704.0,3938.13330078125,2258.0,1654.21240234375,52294.0,915.7349243164062,1.0920190811157227
932390.8753133,0.0814362524305501,0.4766903071824061,-0.16235840978181537,-10.821779627320254,207.96195034176554,317.0699718967285,nan,nan,nan,-1.7599685162212175,-161.3870706849487,-19.82642797420284,nan,nan,nan,-0.018123622222198064,0.7386980420534286,0.6737927997418627,nan,43.8230055711648,nan,0.8208074774851388,2809432.0,2495331328.0,1714317164544.0,-640.0,0.39239731431007385,368.0,0.22562845051288605,-15648.0,9.594114303588867,2711.0,3948.328125,2279.0,1669.5970458984375,52294.0,915.7349243164062,1.0920190811157227
932390.9422649,0.03878520259191387,0.48201636700764716,-0.1419623966887289,-7.643068654002267,202.23058665324086,323.3172568061756,nan,nan,nan,-1.7599685162212175,-161.3870706849487,-19.82642797420284,nan,nan,nan,-0.011766200275562102,0.7272353146763791,0.6862873695607569,nan,46.27720551527166,nan,0.8554950731166366,2809752.0,2495331328.0,1714317164544.0,-640.0,0.39239731431007385,272.0,0.1667688488960266,-15664.0,9.603923797607422,2699.0,3930.851318359375,2264.0,1658.6080322265625,52294.0,915.7349243164062,1.0920190811157227
932391.0092988,0.29600187081755175,0.713483125243933,0.2291384456825063,169.3478790960395,95.3571829837673,442.17346399817905,229.4997721035665,-177.1365504190876,27.289245180705954,nan,nan,nan,-0.12030378601505405,0.5449874668057096,0.8297684376349462,nan,nan,nan,49.20211703386296,nan,2.317862836943505,nan,2810072.0,2495331584.0,1714317164544.0,-624.0,0.38258737325668335,272.0,0.1667688488960266,-15648.0,9.594114303588867,2705.0,3939.58984375,2264.0,1658.6080322265625,52294.0,915.7349243164062,1.0920190811157227
932391.0763314,0.3263507691038513,0.6785209699258876,0.20874998598101746,137.1197010756672,100.44073065307822,432.7726301787403,229.4997721035665,-177.1365504190876,27.289245180705954,nan,nan,nan,-0.18476014205579866,0.5551545621443317,0.8109667699960688,nan,nan,nan,48.59960404236795,nan,2.2803043459761145,nan,2810392.0,2495331584.0,1714317164544.0,-624.0,0.38258737325668335,224.0,0.1373390555381775,-15600.0,9.56468391418457,2712.0,3949.78466796875,2279.0,1669.5970458984375,52295.0,915.3627319335938,1.0924631357192993
932391.1434142,0.2995228135513856,0.7979062576487352,0.2966514906494646,257.69516996320016,72.42178927519154,459.6695708639615,229.47996117221152,-177.14614738979145,27.327406621721558,nan,nan,nan,0.056430417581977324,0.4991358733299661,0.8646843284844798,nan,nan,nan,41.73221119816986,nan,2.0267153791930603,nan,2810712.0,2495331584.0,1714317164544.0,-672.0,0.41201716661453247,240.0,0.1471489816904068,-15664.0,9.603923797607422,2700.0,3932.3076171875,2256.0,1652.7471923828125,52295.0,915.3627319335938,1.0924631357192993
932391.210268,0.0,0.5865513767585061,-0.42255453216260497,51.586552354307386,275.19085513795096,218.60790363457124,nan,nan,nan,-1.6123233467577887,-161.33973581867906,-19.322596266550896,nan,nan,nan,0.10639775140213036,0.8730611819132601,0.47586099980224433,nan,0.0,nan,0.2792280459565797,2811032.0,2495331584.0,1714317164544.0,-640.0,0.39239731431007385,256.0,0.1569589227437973,-15616.0,9.574494361877441,2713.0,3951.240966796875,2281.0,1671.062255859375,52296.0,914.9908447265625,1.0929070711135864
932391.2773007,0.0,0.6551470018976683,-0.43732642286858736,87.6051382141093,272.15764217045864,194.65235783165232,229.47996117221152,-177.14614738979145,27.327406621721558,nan,nan,nan,-0.2837496459162044,0.8986075791205002,0.33464990241986153,nan,nan,nan,0.0,nan,-0.0032117999712495404,nan,2811352.0,2495331584.0,1714317164544.0,-624.0,0.38258737325668335,288.0,0.17657878994941711,-15680.0,9.613734245300293,2710.0,3946.871826171875,2286.0,1674.7252197265625,52296.0,914.9908447265625,1.0929070711135864
932391.3442939,0.017740982546461736,0.8378508221359346,0.1534968947591887,283.6537772938685,137.0384233315611,412.4939331624587,229.47996117221152,-177.14614738979145,27.327406621721558,nan,nan,nan,0.10834763224331395,0.6283691414427051,0.7703330530814743,nan,nan,nan,36.313516987632234,nan,1.66798508583285,nan,2811672.0,2495331584.0,1714317164544.0,-624.0,0.38258737325668335,272.0,0.1667688488960266,-15632.0,9.584303855895996,2713.0,3951.240966796875,2292.0,1679.120849609375,52296.0,914.9908447265625,1.0929070711135864
932391.411265,0.0,0.5865513767585061,-0.42255453216260497,51.586552354307386,275.19085513795096,218.60790363457124,nan,nan,nan,-1.6123233467577887,-161.33973581867906,-19.322596266550896,nan,nan,nan,0.10639775140213036,0.8730611819132601,0.47586099980224433,nan,0.0,nan,0.2792280459565797,2811992.0,2495331584.0,1714317164544.0,-640.0,0.39239731431007385,288.0,0.17657878994941711,-15616.0,9.574494361877441,2705.0,3939.58984375,2281.0,1671.062255859375,52297.0,914.6192626953125,1.093351125717163
932391.478418,0.13730128009731157,0.8148991547216962,0.18855061638208603,263.9228804607686,120.38324257018854,427.68967684823036,229.47996117221152,-177.14614738979145,27.327406621721558,nan,nan,nan,0.06888583857711418,0.59505877991996,0.8007245404530176,nan,nan,nan,37.19906666003146,nan,1.7312410254712804,nan,2812312.0,2495331584.0,1714317164544.0,-640.0,0.39239731431007385,288.0,0.17657878994941711,-15616.0,9.574494361877441,2698.0,3929.394775390625,2255.0,1652.0146484375,52296.0,914.9908447265625,1.0929070711135864
932391.5461551,0.14767990211820023,0.8219851586168598,0.13235623726188983,264.9884161997232,143.86026502199041,409.0262837645239,229.47996117221152,-177.14614738979145,27.327406621721558,nan,nan,nan,0.07101691005502339,0.6420128248235638,0.7633977542856047,nan,nan,nan,37.294186570289945,nan,1.6952114892970291,nan,2812632.0,2495331584.0,1714317164544.0,-624.0,0.38258737325668335,240.0,0.1471489816904068,-15664.0,9.603923797607422,2712.0,3949.78466796875,2274.0,1665.93408203125,52298.0,914.248046875,1.0937950611114502
932391.6132571,0.0,0.5865513767585061,-0.42255453216260497,51.586552354307386,275.19085513795096,218.60790363457124,nan,nan,nan,-1.6123233467577887,-161.33973581867906,-19.322596266550896,nan,nan,nan,0.10639775140213036,0.8730611819132601,0.47586099980224433,nan,0.0,nan,0.2792280459565797,2812952.0,2495331584.0,1714317164544.0,-656.0,0.40220722556114197,208.0,0.12752912938594818,-15568.0,9.545063972473145,2714.0,3952.697509765625,2290.0,1677.6556396484375,52297.0,914.6192626953125,1.093351125717163
932391.6802944,0.0,0.5865513767585061,-0.42255453216260497,51.586552354307386,275.19085513795096,218.60790363457124,nan,nan,nan,-1.6123233467577887,-161.33973581867906,-19.322596266550896,nan,nan,nan,0.10639775140213036,0.8730611819132601,0.47586099980224433,nan,0.0,nan,0.2792280459565797,2813272.0,2495331584.0,1714317164544.0,-656.0,0.40220722556114197,208.0,0.12752912938594818,-15600.0,9.56468391418457,2702.0,3935.220458984375,2269.0,1662.2711181640625,52297.0,914.6192626953125,1.093351125717163
932391.7485801,0.703454852104187,0.8379508997570596,0.125085915971324,280.42791706006767,148.50472029232793,403.30056812228906,229.47996117221152,-177.14614738979145,27.327406621721558,nan,nan,nan,0.1018959117757124,0.6513017353642389,0.7519463230011351,nan,nan,nan,46.26058302795825,nan,2.106083155895437,nan,2813592.0,2495331584.0,1714317164544.0,-624.0,0.38258737325668335,240.0,0.1471489816904068,-15552.0,9.53525447845459,2698.0,3929.394775390625,2254.0,1651.2821044921875,52299.0,913.8770751953125,1.0942391157150269
932391.8161879,0.99,0.7744851381455593,0.18870976823971708,223.5592331492195,116.62674158727629,431.8795474907883,229.47996117221152,-177.14614738979145,27.327406621721558,nan,nan,nan,-0.011841456045984036,0.5875457779541354,0.8091042817381334,nan,nan,nan,16.405299056096503,nan,0.7673201478139919,nan,2813912.0,2495331584.0,1714317164544.0,-544.0,0.3335376977920532,288.0,0.17657878994941711,-15536.0,9.525444984436035,2699.0,3930.851318359375,2248.0,1646.886474609375,52298.0,914.248046875,1.0937950611114502
932391.8832341,0.26579405389497995,0.7635963261963435,0.25282593858640023,218.7067550912716,89.36650183406539,450.2398630880913,229.47996117221152,-177.14614738979145,27.327406621721558,nan,nan,nan,-0.021546412161879896,0.5330252984477137,0.8458249129327393,nan,nan,nan,25.916048636841733,nan,1.259442059163705,nan,2814232.0,2495331584.0,1714317164544.0,-560.0,0.3433476388454437,288.0,0.17657878994941711,-15632.0,9.584303855895996,2708.0,3943.958984375,2262.0,1657.142822265625,52299.0,913.8770751953125,1.0942391157150269
932391.9501211,0.2967418365937698,0.821411883645611,0.2962476829849833,282.5792287946517,73.89713727461373,456.4634421662408,229.47996117221152,-177.14614738979145,27.327406621721558,nan,nan,nan,0.10619853524488043,0.5020865693288105,0.8582720710890385,nan,nan,nan,28.756651199895803,nan,1.4181499433832099,nan,2814552.0,2495331584.0,1714317164544.0,-624.0,0.38258737325668335,320.0,0.19619865715503693,-15616.0,9.574494361877441,2713.0,3951.240966796875,2282.0,1671.794921875,52299.0,913.8770751953125,1.0942391157150269
932392.0172546,0.7096854185814109,0.9677347219597248,-0.16485240573299276,283.75967093672057,206.9232837993854,162.18545661390823,nan,nan,nan,-1.6123233467577887,-161.33973581867906,-19.322596266550896,nan,nan,nan,0.5707439885669566,0.7365260392361288,0.36301610576091825,nan,38.79073789073981,nan,0.6675215509535102,2814872.0,2495331584.0,1714317164544.0,-672.0,0.41201716661453247,256.0,0.1569589227437973,-15632.0,9.584303855895996,2687.0,3913.374267578125,2471.0,1810.2564697265625,52300.0,913.5064086914062,1.094683051109314
932392.0842567,0.0,0.5858732339319543,-0.4230546938912476,51.189889499657525,275.2640424092633,218.43574606245036,nan,nan,nan,-1.6674424663445881,-161.37458870712715,-19.37259751329652,nan,nan,nan,0.10571466393200422,0.873277262232781,0.47561668715149374,nan,0.0,nan,0.2767632162914593,2815192.0,2495331584.0,1714317164544.0,-720.0,0.4414469599723816,240.0,0.1471489816904068,-15648.0,9.594114303588867,2715.0,3954.15380859375,2390.0,1750.915771484375,52301.0,913.1360473632812,1.0951271057128906
932392.1513272,0.0,0.5858732339319543,-0.4230546938912476,51.189889499657525,275.2640424092633,218.43574606245036,nan,nan,nan,-1.6674424663445881,-161.37458870712715,-19.37259751329652,nan,nan,nan,0.10571466393200422,0.873277262232781,0.47561668715149374,nan,0.0,nan,0.2767632162914593,2815512.0,2495331584.0,1714317164544.0,-656.0,0.40220722556114197,272.0,0.1667688488960266,-15680.0,9.613734245300293,2710.0,3946.871826171875,2334.0,1709.89013671875,52300.0,913.5064086914062,1.094683051109314
932392.2182508,0.9053934812545776,0.6158899907523873,0.4891475004413125,96.0558763727482,-18.29866789385335,482.2282642883663,229.42612973056512,-177.10122449071073,27.262195732068776,nan,nan,nan,-0.2667405067156339,0.31760511319371465,0.9099321371125951,nan,nan,nan,64.41354005832555,nan,2.9731272188033326,nan,2815832.0,2495331584.0,1714317164544.0,-608.0,0.37277743220329285,272.0,0.1667688488960266,-15632.0,9.584303855895996,2698.0,3929.394775390625,2284.0,1673.2601318359375,52302.0,912.7659301757812,1.0955710411071777
932392.2855446,0.0,0.5858732339319543,-0.4230546938912476,51.189889499657525,275.2640424092633,218.43574606245036,nan,nan,nan,-1.6674424663445881,-161.37458870712715,-19.37259751329652,nan,nan,nan,0.10571466393200422,0.873277262232781,0.47561668715149374,nan,0.0,nan,0.2767632162914593,2816152.0,2495331584.0,1714317164544.0,-576.0,0.35315757989883423,256.0,0.1569589227437973,-15680.0,9.613734245300293,2712.0,3949.78466796875,2286.0,1674.7252197265625,52302.0,912.7659301757812,1.0955710411071777
932392.3525973,0.8615272641181946,0.5868169130192294,0.21487633968314757,63.78312385478577,90.77174552862255,415.60027851234145,229.42612973056512,-177.10122449071073,27.262195732068776,nan,nan,nan,-0.33128601175155875,0.5357459400386665,0.7766761655605454,nan,nan,nan,63.38336865066045,nan,2.953432799589712,nan,2816472.0,2495331584.0,1714317164544.0,-656.0,0.40220722556114197,224.0,0.1373390555381775,-15600.0,9.56468391418457,2711.0,3948.328125,2294.0,1680.5860595703125,52302.0,912.7659301757812,1.0955710411071777
932392.4195385,0.9179238677024841,0.5873477460870513,0.2120340423059368,64.10280033913673,91.81038777183318,415.01822927544583,229.42612973056512,-177.10122449071073,27.262195732068776,nan,nan,nan,-0.33064665878285676,0.5378232245250878,0.7755120670867541,nan,nan,nan,62.80214425829742,nan,2.9254968481637436,nan,2816792.0,2495331584.0,1714317164544.0,-576.0,0.35315757989883423,256.0,0.1569589227437973,-15600.0,9.56468391418457,2712.0,3949.78466796875,2292.0,1679.120849609375,52302.0,912.7659301757812,1.0955710411071777
932392.4865069,0.9000900387763977,0.5891846756503967,0.21420689362858336,65.53620914873974,91.19426905157428,416.05214168821703,229.42612973056512,-177.10122449071073,27.262195732068776,nan,nan,nan,-0.3277798411636508,0.5365909870845699,0.7775798919122965,nan,nan,nan,61.922199097264624,nan,2.887147713235694,nan,2817112.0,2495331584.0,1714317164544.0,-544.0,0.3335376977920532,304.0,0.18638871610164642,-15648.0,9.594114303588867,2711.0,3948.328125,2294.0,1680.5860595703125,52302.0,912.7659301757812,1.0955710411071777
932392.5541859,0.8238615393638611,0.589221249567666,0.21577147564049737,65.60688236601699,90.64684816410073,416.45909163765896,229.42612973056512,-177.10122449071073,27.262195732068776,nan,nan,nan,-0.3276384947290963,0.5354961453096229,0.7783937918111804,nan,nan,nan,61.68202257607369,nan,2.876301620895722,nan,2817432.0,2495331584.0,1714317164544.0,-592.0,0.36296749114990234,256.0,0.1569589227437973,-15600.0,9.56468391418457,2700.0,3932.3076171875,2267.0,1660.805908203125,52303.0,912.3961791992188,1.0960150957107544
932392.6215625,0.0,0.5858732339319543,-0.4230546938912476,51.189889499657525,275.2640424092633,218.43574606245036,nan,nan,nan,-1.6674424663445881,-161.37458870712715,-19.37259751329652,nan,nan,nan,0.10571466393200422,0.873277262232781,0.47561668715149374,nan,0.0,nan,0.2767632162914593,2817752.0,2495331584.0,1714317164544.0,-624.0,0.38258737325668335,224.0,0.1373390555381775,-15696.0,9.623543739318848,2702.0,3935.220458984375,2258.0,1654.21240234375,52304.0,912.0267333984375,1.096459150314331
932392.6893232,0.0,0.5858732339319543,-0.4230546938912476,51.189889499657525,275.2640424092633,218.43574606245036,nan,nan,nan,-1.6674424663445881,-161.37458870712715,-19.37259751329652,nan,nan,nan,0.10571466393200422,0.873277262232781,0.47561668715149374,nan,0.0,nan,0.2767632162914593,2818072.0,2495331584.0,1714317164544.0,-608.0,0.37277743220329285,272.0,0.1667688488960266,-15584.0,9.554874420166016,2720.0,3961.435791015625,2294.0,1680.5860595703125,52303.0,912.3961791992188,1.0960150957107544
932392.7574521,0.1963712939712706,0.7784254359926521,0.7156255431972436,276.7825268895703,-146.90871190339539,524.0979672217869,229.42612973056512,-177.10122449071073,27.262195732068776,nan,nan,nan,0.0947127943180104,0.060385025174630624,0.9936715429794362,nan,nan,nan,20.10785004845481,nan,1.21293307222314,nan,2818392.0,2495331840.0,1714317164544.0,-688.0,0.421827107667923,256.0,0.1569589227437973,-15680.0,9.613734245300293,2715.0,3954.15380859375,2305.0,1688.6446533203125,52303.0,912.3961791992188,1.0960150957107544
932392.8252572,0.0,0.5858732339319543,-0.4230546938912476,51.189889499657525,275.2640424092633,218.43574606245036,nan,nan,nan,-1.6674424663445881,-161.37458870712715,-19.37259751329652,nan,nan,nan,0.10571466393200422,0.873277262232781,0.47561668715149374,nan,0.0,nan,0.2767632162914593,2818712.0,2495331840.0,1714317164544.0,-656.0,0.40220722556114197,240.0,0.1471489816904068,-15568.0,9.545063972473145,2705.0,3939.58984375,2285.0,1673.99267578125,52304.0,912.0267333984375,1.096459150314331
932392.8923024,0.841051459312439,0.8637275100742736,0.5640709245878441,44.52123630785099,-7.880782989129328,60.740889896839974,21.2179276484316,24.248397413085904,-15.150866425459757,-32.94920935351441,19.6413647726753,-2.4396483937794766,0.27113239504636705,-0.24218211196428047,0.9315766468739659,0.7380589689530981,-0.3920773989089752,0.54913046866174,20.516534366424843,47.16102555339112,0.9656651654794635,0.7310073257377105,2819032.0,2495331840.0,1714317164544.0,-640.0,0.39239731431007385,224.0,0.1373390555381775,-15536.0,9.525444984436035,2702.0,3935.220458984375,2270.0,1663.003662109375,52305.0,911.6575317382812,1.0969030857086182
932392.9594225,0.5154393611947271,0.6534090983352004,0.26296352662486666,118.59959464259595,77.81840954965423,442.8743458204914,229.42612973056512,-177.10122449071073,27.262195732068776,nan,nan,nan,-0.22165307017593838,0.5098392680807299,0.8312243001768453,nan,nan,nan,23.409483668553943,nan,1.1566113306329115,nan,2819352.0,2495331840.0,1714317164544.0,-656.0,0.40220722556114197,240.0,0.1471489816904068,-15664.0,9.603923797607422,2708.0,3943.958984375,2269.0,1662.2711181640625,52305.0,911.6575317382812,1.0969030857086182
932393.0262844,0.8135238289833069,0.7826883910934569,0.7237372139430194,228.1819023124002,-122.93983180030676,422.9983420456842,nan,nan,nan,-1.6674424663445881,-161.37458870712715,-19.37259751329652,nan,nan,nan,0.4596986895574896,0.07686951381364085,0.8847418791179614,nan,48.05535697264317,nan,0.7484914687726905,2819672.0,2495331840.0,1714317164544.0,-704.0,0.4316370189189911,272.0,0.1667688488960266,-15568.0,9.545063972473145,2711.0,3948.328125,2287.0,1675.4578857421875,52306.0,911.2886962890625,1.0973471403121948
932393.0939844,0.0,0.5858732339319543,-0.4230546938912476,51.189889499657525,275.2640424092633,218.43574606245036,nan,nan,nan,-1.6674424663445881,-161.37458870712715,-19.37259751329652,nan,nan,nan,0.10571466393200422,0.873277262232781,0.47561668715149374,nan,0.0,nan,0.2767632162914593,2819992.0,2495331840.0,1714317164544.0,-640.0,0.39239731431007385,256.0,0.1569589227437973,-15568.0,9.545063972473145,2713.0,3951.240966796875,2293.0,1679.853515625,52306.0,911.2886962890625,1.0973471403121948
932393.161244,0.0,0.5858732339319543,-0.4230546938912476,51.189889499657525,275.2640424092633,218.43574606245036,nan,nan,nan,-1.6674424663445881,-161.37458870712715,-19.37259751329652,nan,nan,nan,0.10571466393200422,0.873277262232781,0.47561668715149374,nan,0.0,nan,0.2767632162914593,2820312.0,2495331840.0,1714317164544.0,-624.0,0.38258737325668335,288.0,0.17657878994941711,-15536.0,9.525444984436035,2703.0,3936.677001953125,2278.0,1668.864501953125,52308.0,910.5518798828125,1.0982351303100586
932393.2282911,0.7228888273239136,0.8660687377672167,0.828066073206911,148.026170840534,-85.28455997979651,183.72559899352166,21.203425336646653,24.28619354101678,-15.120954345736802,-32.94920935351441,19.6413647726753,-2.4396483937794766,0.488390628600488,-0.39743482619724124,0.7768655950811497,0.6451351499220981,-0.3983013793686695,0.652040374154858,22.46948831837476,47.06870778724661,1.0142033854385204,0.7393313005647251,2820632.0,2495331840.0,1714317164544.0,-672.0,0.41201716661453247,240.0,0.1471489816904068,-15600.0,9.56468391418457,2702.0,3935.220458984375,2266.0,1660.0732421875,52307.0,910.9201049804688,1.097791075706482
932393.2954857,0.8619345426559448,0.7694340519771793,0.7296947486508254,218.12323458416208,-125.84654647830797,428.32128953126335,nan,nan,nan,-1.6674424663445881,-161.37458870712715,-19.37259751329652,nan,nan,nan,0.43958135410101346,0.07105608445763845,0.8953877740891196,nan,47.19946133363055,nan,0.7402583470963355,2820952.0,2495331840.0,1714317164544.0,-640.0,0.39239731431007385,208.0,0.12752912938594818,-15504.0,9.50582504272461,2699.0,3930.851318359375,2254.0,1651.2821044921875,52308.0,910.5518798828125,1.0982351303100586
932393.3624016,0.0,0.5858732339319543,-0.4230546938912476,51.189889499657525,275.2640424092633,218.43574606245036,nan,nan,nan,-1.6674424663445881,-161.37458870712715,-19.37259751329652,nan,nan,nan,0.10571466393200422,0.873277262232781,0.47561668715149374,nan,0.0,nan,0.2767632162914593,2821272.0,2495331840.0,1714317164544.0,-608.0,0.37277743220329285,240.0,0.1471489816904068,-15600.0,9.56468391418457,2712.0,3949.78466796875,2275.0,1666.6666259765625,52309.0,910.1838989257812,1.0986790657043457
932393.4293161,0.4459109863375044,0.8521958641870301,0.5495053050619221,347.3610354472131,-55.49863156275251,497.69988443609986,229.4058728300634,-177.05515867255502,27.263288996325826,nan,nan,nan,0.23591032523429945,0.24311305421960505,0.940873190879548,nan,nan,nan,19.56852775555013,nan,1.1067833261423607,nan,2821592.0,2495331840.0,1714317164544.0,-656.0,0.40220722556114197,272.0,0.1667688488960266,-15568.0,9.545063972473145,2714.0,3952.697509765625,2289.0,1676.923095703125,52309.0,910.1838989257812,1.0986790657043457
932393.4961515,0.49986173221572017,0.8546705532855429,0.5436892007349471,349.6580100395047,-52.302377578286524,496.27945833999263,229.4058728300634,-177.05515867255502,27.263288996325826,nan,nan,nan,0.24050427441888278,0.249505562188537,0.9380323386873337,nan,nan,nan,17.44503652203913,nan,0.9947456543230238,nan,2821912.0,2495331840.0,1714317164544.0,-640.0,0.39239731431007385,240.0,0.1471489816904068,-15648.0,9.594114303588867,2713.0,3951.240966796875,2296.0,1682.05126953125,52310.0,909.8162231445312,1.0991231203079224
932393.5631829,0.0,0.5858732339319543,-0.4230546938912476,51.189889499657525,275.2640424092633,218.43574606245036,nan,nan,nan,-1.6674424663445881,-161.37458870712715,-19.37259751329652,nan,nan,nan,0.10571466393200422,0.873277262232781,0.47561668715149374,nan,0.0,nan,0.2767632162914593,2822232.0,2495331840.0,1714317164544.0,-624.0,0.38258737325668335,240.0,0.1471489816904068,-15616.0,9.574494361877441,2705.0,3939.58984375,2281.0,1671.062255859375,52310.0,909.8162231445312,1.0991231203079224
932393.630231,0.9341473281383514,0.587160185388793,0.10229428680295982,17.9543510805792,37.74702192389582,113.42173088980353,21.203425336646653,24.28619354101678,-15.120954345736802,-32.94920935351441,19.6413647726753,-2.4396483937794766,0.002995830196041101,-0.14552238150669938,0.9893504240066081,0.3582815095232345,0.38350966885842563,0.8512077853414249,57.90020627799198,50.07846829838994,2.7600920222745082,0.8250786894306925,2822552.0,2495331840.0,1714317164544.0,-640.0,0.39239731431007385,240.0,0.1471489816904068,-15600.0,9.56468391418457,2698.0,3929.394775390625,2255.0,1652.0146484375,52310.0,909.8162231445312,1.0991231203079224
932393.6973184,1.0,0.5810758133088885,0.0473324450241942,17.3083896147686,45.13961303050221,115.12000809488227,21.203425336646653,24.28619354101678,-15.120954345736802,-32.94920935351441,19.6413647726753,-2.4396483937794766,-0.005261583330682289,-0.03583515862457249,0.999343863315929,0.35442324094580124,0.38267462196333163,0.8531965189700998,57.35541956607093,49.7267304162577,2.740923628915862,0.8212684765943497,2822872.0,2495331840.0,1714317164544.0,-656.0,0.40220722556114197,256.0,0.1569589227437973,-15568.0,9.545063972473145,2713.0,3951.240966796875,2282.0,1671.794921875,52312.0,909.0817260742188,1.1000111103057861
932393.765318,0.9836153090000153,0.5811772741818444,0.04460201250059581,17.679563410304493,46.36747147174289,117.3330619599255,21.203425336646653,24.28619354101678,-15.120954345736802,-32.94920935351441,19.6413647726753,-2.4396483937794766,-0.0012626454545540274,-0.033546220242375205,0.9994363695773264,0.34930924892622656,0.3919427633854745,0.8510957166173223,56.94315762024654,49.52323557894356,2.7213305684302993,0.8191410116673623,2823192.0,2495331840.0,1714317164544.0,-592.0,0.36296749114990234,272.0,0.1667688488960266,-15680.0,9.613734245300293,2711.0,3948.328125,2289.0,1676.923095703125,52311.0,909.4487915039062,1.0995670557022095
932393.8322614,0.9775455296039581,0.5820550219945951,0.04449053084689136,17.889304740366626,46.459758437961426,117.5040693659837,21.203425336646653,24.28619354101678,-15.120954345736802,-32.94920935351441,19.6413647726753,-2.4396483937794766,0.0002533928761779416,-0.0326210232705821,0.9994677606770669,0.350222861271561,0.39181451347003343,0.8507792513202246,56.37784262525864,48.95033491364618,2.6947889367886253,0.8128970065981731,2823512.0,2495331840.0,1714317164544.0,-608.0,0.37277743220329285,288.0,0.17657878994941711,-15568.0,9.545063972473145,2704.0,3938.13330078125,2273.0,1665.201416015625,52312.0,909.0817260742188,1.1000111103057861
932393.8993641,0.978368878364563,0.566743984130555,0.037985904377960567,13.747952018658971,43.97449634031665,109.57216146329878,21.203425336646653,24.28619354101678,-15.120954345736802,-32.94920935351441,19.6413647726753,-2.4396483937794766,-0.03386178410418778,-0.03969233889213742,0.9986380214124401,0.3459894911143628,0.385117202874082,0.8555559666607834,56.1177917405565,48.563983087196036,2.6892241085960404,0.8094459285271345,2823832.0,2495331840.0,1714317164544.0,-624.0,0.38258737325668335,272.0,0.1667688488960266,-15632.0,9.584303855895996,2704.0,3938.13330078125,2263.0,1657.87548828125,52313.0,908.7149658203125,1.1004550457000732
932393.9665827,1.0,0.5652595631068129,0.037200256035710644,13.657916364859085,44.689130994017106,111.1410338376044,21.203425336646653,24.28619354101678,-15.120954345736802,-32.94920935351441,19.6413647726753,-2.4396483937794766,-0.03297866176141928,-0.04109717294022257,0.9986107501147518,0.339633751968398,0.3928856465982127,0.8545699405086591,55.08579746650421,47.69163492351823,2.6411977152994623,0.8000097172700489,2824152.0,2495331840.0,1714317164544.0,-640.0,0.39239731431007385,304.0,0.18638871610164642,-15728.0,9.643163681030273,2695.0,3925.025634765625,2245.0,1644.6885986328125,52314.0,908.3484497070312,1.10089910030365
932394.0334711,0.9800101816654205,0.5829716635940952,0.027985518196856685,15.237806700647226,40.76540337891951,98.42347880787545,21.203425336646653,24.28619354101678,-15.120954345736802,-34.4585798589612,19.008293726250276,-3.7040602311381825,-0.028177809847469263,-0.04047711313164502,0.9987830667090465,0.3994781768951514,0.3663351089622182,0.8403664522850528,54.26497759543824,46.938976617640336,2.6031252939960345,1.0801110684093844,2824472.0,2495331840.0,1714317164544.0,-576.0,0.35315757989883423,240.0,0.1471489816904068,-15696.0,9.623543739318848,2706.0,3941.046142578125,2260.0,1655.6776123046875,52314.0,908.3484497070312,1.10089910030365
932394.1013222,0.9534316956996918,0.58146847796937,0.02907501441868854,15.05809908110805,40.87503374509311,99.02310869228828,21.203425336646653,24.28619354101678,-15.120954345736802,-34.4585798589612,19.008293726250276,-3.7040602311381825,-0.029201598531358324,-0.04194673083466162,0.9986930151029884,0.3958857696621789,0.3680537896674268,0.8413149620031902,53.24803613868149,46.21786706045895,2.557327792082991,1.0669100887806118,2824792.0,2495331840.0,1714317164544.0,-656.0,0.40220722556114197,208.0,0.12752912938594818,-15664.0,9.603923797607422,2712.0,3949.78466796875,2273.0,1665.201416015625,52313.0,908.7149658203125,1.1004550457000732
932394.1682536,0.8,0.5717392127617618,0.0016293958122310936,13.462106852724704,43.845203191995665,98.83802726884986,21.227605910022525,24.651796350834438,-14.320372844066743,-34.4585798589612,19.008293726250276,-3.7040602311381825,-0.04245332452030003,-0.012615262622850941,0.9990188038200936,0.3827650607245016,0.3874913534648144,0.8386544933872202,53.97231239293885,45.32474176140107,2.4042831794077477,1.0481611336737835,2825112.0,2495331840.0,1714317164544.0,-688.0,0.421827107667923,288.0,0.17657878994941711,-15600.0,9.56468391418457,2711.0,3948.328125,2289.0,1676.923095703125,52315.0,907.9822387695312,1.1013431549072266
932394.2352489,0.9893357753753662,0.5673916275917135,-0.002722672422143635,12.257732578202628,42.71816685124381,95.28608530287134,21.227605910022525,24.651796350834438,-14.320372844066743,-34.4585798589612,19.008293726250276,-3.7040602311381825,-0.056640059834603955,-0.008216243298747304,0.9983608550859695,0.3882549271130323,0.3764523521482923,0.8411550024427554,52.8311221088729,45.493089066368896,2.3516682993059064,1.0508215812048025,2825432.0,2495331840.0,1714317164544.0,-640.0,0.39239731431007385,288.0,0.17657878994941711,-15600.0,9.56468391418457,2712.0,3949.78466796875,2288.0,1676.1904296875,52315.0,907.9822387695312,1.1013431549072266
932394.3022813,0.8523976504802704,0.5897228873737868,-0.007626253469523281,17.663476667117802,47.62534088359636,104.2944227753775,21.227605910022525,24.651796350834438,-14.320372844066743,-34.4585798589612,19.008293726250276,-3.7040602311381825,-0.006286444008510426,0.02354928509220562,0.9997029117659775,0.39395003846598253,0.3925984384040423,0.8310654807867779,52.029357428795805,43.99614547959159,2.266757303289365,1.0214137465862563,2825752.0,2495331840.0,1714317164544.0,-608.0,0.37277743220329285,240.0,0.1471489816904068,-15632.0,9.584303855895996,2706.0,3941.046142578125,2279.0,1669.5970458984375,52315.0,907.9822387695312,1.1013431549072266
932394.3694719,0.9065674841403961,0.5865588545083711,-0.0060198118680836465,17.438352961966732,48.46381982582822,106.67265087506351,21.227605910022525,24.651796350834438,-14.320372844066743,-34.4585798589612,19.008293726250276,-3.7040602311381825,-0.006812523191243934,0.022320364434828325,0.9997276583446439,0.3839464815987869,0.3990109226636826,0.8326916493294436,52.287943249140255,43.93810987435114,2.2796320706191167,1.0204211932235991,2826072.0,2495331840.0,1714317164544.0,-624.0,0.38258737325668335,288.0,0.17657878994941711,-15584.0,9.554874420166016,2698.0,3929.394775390625,2256.0,1652.7471923828125,52316.0,907.6163330078125,1.1017870903015137
932394.4372498,0.938940018415451,0.5853633934946767,-0.000239185717014756,17.196740438086927,47.80490961954559,106.8737871318645,21.227605910022525,24.651796350834438,-14.320372844066743,-34.4585798589612,19.008293726250276,-3.7040602311381825,-0.00941233054533532,0.020621573561766714,0.9997430463561835,0.38323958370691824,0.39057289468503054,0.8370067116920293,52.86542896327385,44.44535539220485,2.305587741961168,1.029663273663707,2826392.0,2495331840.0,1714317164544.0,-576.0,0.35315757989883423,304.0,0.18638871610164642,-15584.0,9.554874420166016,2714.0,3952.697509765625,2280.0,1670.3297119140625,52317.0,907.250732421875,1.1022311449050903
932394.5041105,0.7256796360015869,0.5629432772402269,-0.2690880726358955,39.88165158454923,235.62166688122693,278.59975416178077,nan,nan,nan,-2.676848354145716,-162.80266041799896,-20.476873977442743,nan,nan,nan,0.0851169998773899,0.7968486545984518,0.598153256278447,nan,43.57325425921583,nan,1.0137054631997047,2826712.0,2495332096.0,1714317164544.0,-624.0,0.38258737325668335,272.0,0.1667688488960266,-15632.0,9.584303855895996,2714.0,3952.697509765625,2295.0,1681.3187255859375,52318.0,906.8854370117188,1.1026750802993774
932394.571403,0.8829092383384705,0.5792254517877944,-0.27869396967602844,49.23704547093437,238.08135567297373,273.79672876444624,nan,nan,nan,-2.676848354145716,-162.80266041799896,-20.476873977442743,nan,nan,nan,0.10382778765016017,0.8017680321819454,0.5885472054837779,nan,43.89340976801744,nan,1.0184500959855836,2827032.0,2495332096.0,1714317164544.0,-640.0,0.39239731431007385,336.0,0.20600858330726624,-15632.0,9.584303855895996,2711.0,3948.328125,2296.0,1682.05126953125,52318.0,906.8854370117188,1.1026750802993774
932394.6382828,0.9507990479469299,0.7508169499637032,-0.04238540353942333,159.7696400662382,172.17974448278184,313.2864056187036,nan,nan,nan,-2.676848354145716,-162.80266041799896,-20.476873977442743,nan,nan,nan,0.32489297684076784,0.6699648098015616,0.6675265591922926,nan,43.01954587409084,nan,0.9949571932314174,2827352.0,2495332096.0,1714317164544.0,-704.0,0.4316370189189911,320.0,0.19619865715503693,-15584.0,9.554874420166016,2704.0,3938.13330078125,2276.0,1667.3992919921875,52319.0,906.5204467773438,1.103119134902954
932394.7052745,0.2983328376974136,0.6221900053821976,0.1901602759113744,90.23582262102204,102.66887539109354,418.66588189317827,229.26443892722213,-176.3159954087896,27.720251769556178,nan,nan,nan,-0.2780572326124002,0.5579697415997663,0.7818912602472441,nan,nan,nan,55.056264389095894,nan,2.4070687497860934,nan,2827672.0,2495332096.0,1714317164544.0,-608.0,0.37277743220329285,240.0,0.1471489816904068,-15504.0,9.50582504272461,2696.0,3926.48193359375,2246.0,1645.4212646484375,52319.0,906.5204467773438,1.103119134902954
932394.7721029,0.5125610059735073,0.5804756044861559,0.1960353965297904,58.74506676945697,97.0241638063311,410.09219252773215,229.26443892722213,-176.3159954087896,27.720251769556178,nan,nan,nan,-0.34103874431553033,0.5466803184302413,0.764743881516352,nan,nan,nan,55.48269555804858,nan,2.4328741633405633,nan,2827992.0,2495332096.0,1714317164544.0,-624.0,0.38258737325668335,256.0,0.1569589227437973,-15584.0,9.554874420166016,2713.0,3951.240966796875,2275.0,1666.6666259765625,52320.0,906.1557006835938,1.1035630702972412
932394.8393158,0.7632806599140167,0.5898223507102762,0.03464600070825519,10.652524800752293,26.029766446789097,63.904459685390826,21.227605910022525,24.651796350834438,-14.320372844066743,-34.4585798589612,19.008293726250276,-3.7040602311381825,-0.13338708674295896,0.01224053876152016,0.9909884228895179,0.5524027755414899,0.0912811065433111,0.8285643808191896,57.06131175619076,47.9213120342992,2.501340892192829,1.0795750935946966,2828312.0,2495332096.0,1714317164544.0,-608.0,0.37277743220329285,224.0,0.1373390555381775,-15552.0,9.53525447845459,2711.0,3948.328125,2290.0,1677.6556396484375,52320.0,906.1557006835938,1.1035630702972412
932394.9066942,0.8403882086277008,0.5882354989125959,0.03216250518523078,10.456331402294882,26.1392640001282,63.757824436996444,21.227605910022525,24.651796350834438,-14.320372844066743,-34.4585798589612,19.008293726250276,-3.7040602311381825,-0.13632768513261076,0.016011314336310135,0.9905344012600509,0.5517471512805756,0.0905052250505216,0.8290861748288438,57.67960831992989,48.45424912272182,2.527821123932561,1.0895638180390996,2828632.0,2495332096.0,1714317164544.0,-592.0,0.36296749114990234,272.0,0.1667688488960266,-15632.0,9.584303855895996,2704.0,3938.13330078125,2269.0,1662.2711181640625,52320.0,906.1557006835938,1.1035630702972412
932394.9741245,0.14172031478319244,0.6877244523389949,-0.21011553340636469,114.58535307359114,219.86783250592774,279.2110803378414,nan,nan,nan,-2.676848354145716,-162.80266041799896,-20.476873977442743,nan,nan,nan,0.2345244028554737,0.7653409858478533,0.5993759086305682,nan,40.16892988454917,nan,0.9627582515453899,2828952.0,2495332096.0,1714317164544.0,-656.0,0.40220722556114197,256.0,0.1569589227437973,-15632.0,9.584303855895996,2709.0,3945.415283203125,2280.0,1670.3297119140625,52321.0,905.791259765625,1.1040071249008179
932395.0412795,0.9159653782844543,0.5805091345528982,0.21833183732561057,59.32361576473224,89.27728820824314,415.7670586374619,229.26443892722213,-176.3159954087896,27.720251769556178,nan,nan,nan,-0.3398816463249798,0.5311865672340655,0.7760936137358114,nan,nan,nan,57.971985002447234,nan,2.5394098726556087,nan,2829272.0,2495332096.0,1714317164544.0,-640.0,0.39239731431007385,240.0,0.1471489816904068,-15632.0,9.584303855895996,2695.0,3925.025634765625,2252.0,1649.81689453125,52321.0,905.791259765625,1.1040071249008179
932395.1088661,0.8568704128265381,0.5602979005751572,-0.007210534884789066,8.396034262413401,32.740250161253655,72.27713425295771,21.227605910022525,24.651796350834438,-14.320372844066743,-34.8831439590179,18.547674686819462,-4.136435828398076,-0.13523474340181585,0.012416449550677194,0.9907357851403171,0.4746899532579285,0.2383127287382454,0.8472759241223116,58.31855080827586,49.6863295019099,2.5546892038818876,1.2349845915906479,2829592.0,2495332096.0,1714317164544.0,-608.0,0.37277743220329285,240.0,0.1471489816904068,-15616.0,9.574494361877441,2704.0,3938.13330078125,2255.0,1652.0146484375,52322.0,905.4271240234375,1.104451060295105
932395.1757201,0.855841189622879,0.5507708371063323,-0.016933145065957333,7.408120352597798,34.50555764466562,74.39831931022384,21.24178766621317,24.865341650213296,-13.824392614923884,-34.8831439590179,18.547674686819462,-4.136435828398076,-0.13914991932534948,0.003039345795333144,0.9902666622323933,0.45010693304013977,0.2788156922313217,0.8483310430455602,59.251528754038134,49.24816196909101,2.4966271317211626,1.2275658016967728,2829912.0,2495332096.0,1714317164544.0,-688.0,0.421827107667923,304.0,0.18638871610164642,-15600.0,9.56468391418457,2712.0,3949.78466796875,2274.0,1665.93408203125,52322.0,905.4271240234375,1.104451060295105
932395.2433231,0.7828918397426605,0.5299225863342885,-0.048485236299497636,5.362403386656733,42.3981651276564,84.62950530425964,21.24178766621317,24.865341650213296,-13.824392614923884,-34.8831439590179,18.547674686819462,-4.136435828398076,-0.12908828175065368,-0.0009913667734824233,0.9916326097434394,0.36951554538638326,0.4053795649938619,0.8361373511590013,59.37578309669035,49.987762105676076,2.5087887696669027,1.2481131938186136,2830232.0,2495332096.0,1714317164544.0,-688.0,0.421827107667923,304.0,0.18638871610164642,-15600.0,9.56468391418457,2713.0,3951.240966796875,2287.0,1675.4578857421875,52322.0,905.4271240234375,1.104451060295105
932395.3104158,0.13957944881263834,0.7212434101795587,-0.10009140521229187,138.65833626479534,188.8036522363838,304.63043032754797,nan,nan,nan,-2.9175988446121366,-163.48455810231275,-20.714419722756485,nan,nan,nan,0.2831518702188149,0.7045764206773931,0.650689700100609,nan,41.77917330278219,nan,1.1159611371136005,2830552.0,2495332096.0,1714317164544.0,-640.0,0.39239731431007385,256.0,0.1569589227437973,-15600.0,9.56468391418457,2713.0,3951.240966796875,2297.0,1682.783935546875,52323.0,905.0632934570312,1.1048951148986816
932395.3773492,0.2197176563842273,0.6836093373593431,-0.19868012963491433,112.30333456809551,216.3524839519213,283.338138212536,nan,nan,nan,-2.9175988446121366,-163.48455810231275,-20.714419722756485,nan,nan,nan,0.2304418668254153,0.759674084108468,0.608105115870585,nan,35.6154619388757,nan,0.9598831973466218,2830872.0,2495332096.0,1714317164544.0,-688.0,0.421827107667923,256.0,0.1569589227437973,-15632.0,9.584303855895996,2710.0,3946.871826171875,2290.0,1677.6556396484375,52324.0,904.6997680664062,1.1053390502929688
932395.4446626,0.9541879296302795,0.582797229056488,0.23634914574978338,61.57102237135132,83.17908330582759,421.460051365431,229.17598427625043,-175.86897493185384,28.010333779887166,nan,nan,nan,-0.3352099238097982,0.5180961164753628,0.7868994351710876,nan,nan,nan,60.12176799169323,nan,2.5392499253661205,nan,2831192.0,2495332096.0,1714317164544.0,-608.0,0.37277743220329285,240.0,0.1471489816904068,-15616.0,9.574494361877441,2700.0,3932.3076171875,2263.0,1657.87548828125,52325.0,904.3364868164062,1.1057831048965454
932395.5130545,0.15728013423160592,0.6585650191325417,-0.18037741805392882,97.96827706733228,211.3993400781954,294.3793804803991,nan,nan,nan,-2.9175988446121366,-163.48455810231275,-20.714419722756485,nan,nan,nan,0.20177175182388885,0.7497677963610162,0.6301876004063113,nan,38.511290168313536,nan,1.0244645523752642,2831512.0,2495332096.0,1714317164544.0,-640.0,0.39239731431007385,272.0,0.1667688488960266,-15584.0,9.554874420166016,2681.0,3904.635986328125,2447.0,1792.6739501953125,52326.0,903.9735107421875,1.106227159500122
932395.5799256,0.920238196849823,0.5820157071170977,0.23318928379677684,60.90415053026139,84.25215022468336,420.4661787039491,229.17598427625043,-175.86897493185384,28.010333779887166,nan,nan,nan,-0.33654366749197806,0.5202422503130744,0.7849116898481239,nan,nan,nan,60.026216811204456,nan,2.5356592801917666,nan,2831832.0,2495332096.0,1714317164544.0,-560.0,0.3433476388454437,256.0,0.1569589227437973,-15568.0,9.545063972473145,2711.0,3948.328125,2367.0,1734.06591796875,52325.0,904.3364868164062,1.1057831048965454
932395.647433,0.9609706997871399,0.5807962922248521,0.23839747370678543,60.1217234039123,82.30140206824615,421.4168834464296,229.17598427625043,-175.86897493185384,28.010333779887166,nan,nan,nan,-0.3381085217446763,0.5163407540002001,0.7868130993330849,nan,nan,nan,60.14396277365162,nan,2.540327493276747,nan,2832152.0,2495332096.0,1714317164544.0,-624.0,0.38258737325668335,240.0,0.1471489816904068,-15680.0,9.613734245300293,2712.0,3949.78466796875,2329.0,1706.22705078125,52326.0,903.9735107421875,1.106227159500122
932395.7142921,0.8510558307170868,0.5285658285466832,-0.04928244241487745,5.051089309467752,41.59689338037576,82.87733013795113,21.24178766621317,24.865341650213296,-13.824392614923884,-34.8831439590179,18.547674686819462,-4.136435828398076,-0.134964440362419,-0.006515595851700359,0.9908290199869786,0.37387014077443753,0.40242537396473305,0.8356284678172753,60.75147938055523,51.264337985811835,2.565357454742707,1.2756492343476116,2832472.0,2495332096.0,1714317164544.0,-672.0,0.41201716661453247,272.0,0.1667688488960266,-15680.0,9.613734245300293,2705.0,3939.58984375,2295.0,1681.3187255859375,52326.0,903.9735107421875,1.106227159500122
932395.7813146,0.2058210262137167,0.6447584893119246,-0.18289041057389221,89.66009624838662,212.10296318536552,296.0873861815747,nan,nan,nan,-2.9175988446121366,-163.48455810231275,-20.714419722756485,nan,nan,nan,0.18515539018599753,0.7511750425753566,0.6336036118086623,nan,37.88723020326171,nan,1.0101394928953664,2832792.0,2495332096.0,1714317164544.0,-656.0,0.40220722556114197,320.0,0.19619865715503693,-15568.0,9.545063972473145,2698.0,3929.394775390625,2265.0,1659.3406982421875,52328.0,903.2484741210938,1.1071151494979858
932395.8483194,0.8941434323787689,0.5288328196791652,-0.04839540933799946,5.0608446403465095,41.27870507085526,82.4227804462106,21.24178766621317,24.865341650213296,-13.824392614923884,-34.8831439590179,18.547674686819462,-4.136435828398076,-0.13565524857295946,-0.009382933696572778,0.9907116705125939,0.37585334652081615,0.4008410269126673,0.8355002890799629,61.49375560260101,50.99652083327141,2.595820269019741,1.269723754807485,2833112.0,2495332096.0,1714317164544.0,-640.0,0.39239731431007385,272.0,0.1667688488960266,-15552.0,9.53525447845459,2711.0,3948.328125,2282.0,1671.794921875,52327.0,903.61083984375,1.1066710948944092
932395.915794,0.20889749798861598,0.6367441688061237,-0.18415560234422146,84.84760517575111,212.45866686971084,297.03384630067654,nan,nan,nan,-2.9175988446121366,-163.48455810231275,-20.714419722756485,nan,nan,nan,0.1755304080407265,0.7518864499440473,0.6354965320468662,nan,35.42385778953494,nan,0.9564388601193397,2833432.0,2495332096.0,1714317164544.0,-672.0,0.41201716661453247,256.0,0.1569589227437973,-15552.0,9.53525447845459,2686.0,3911.91796875,2465.0,1805.86083984375,52327.0,903.61083984375,1.1066710948944092
932395.9832371,0.8583063185214996,0.5296721813210686,-0.04747487478976353,5.199072879268602,41.31558904141512,82.67850818664215,21.24178766621317,24.865341650213296,-13.824392614923884,-34.8831439590179,18.547674686819462,-4.136435828398076,-0.13389078256460493,-0.009558394736765344,0.9909499964348827,0.3760279595882232,0.40068367151078443,0.8354971986742717,61.807978027059576,52.09272052859287,2.609266684516621,1.2926354689821538,2833752.0,2495332096.0,1714317164544.0,-640.0,0.39239731431007385,320.0,0.19619865715503693,-15600.0,9.56468391418457,2699.0,3930.851318359375,2350.0,1721.6116943359375,52329.0,902.8863525390625,1.107559084892273
932396.0505435,0.8481447994709015,0.5311908293675601,-0.045272404791432574,5.389185692736276,40.868190060506286,82.22026514368099,21.24178766621317,24.865341650213296,-13.824392614923884,-34.8831439590179,18.547674686819462,-4.136435828398076,-0.1330138881778429,-0.013080295039232026,0.9910278560330678,0.3798410723173075,0.39716658162234375,0.8354516540310757,61.574538580856554,51.83264241271434,2.6006288632266794,1.2869465046974606,2834072.0,2495332096.0,1714317164544.0,-640.0,0.39239731431007385,224.0,0.1373390555381775,-15648.0,9.594114303588867,2712.0,3949.78466796875,2317.0,1697.4359130859375,52328.0,903.2484741210938,1.1071151494979858
932396.1182721,0.7733498215675354,0.5817587291624159,0.2562569151227142,61.296141504737605,75.91536866134703,426.03169339812814,229.17598427625043,-175.86897493185384,28.010333779887166,nan,nan,nan,-0.33575968554302565,0.5035686871864018,0.7960427192364818,nan,nan,nan,61.85757761860373,nan,2.612373465064579,nan,2834392.0,2495332096.0,1714317164544.0,-608.0,0.37277743220329285,272.0,0.1667688488960266,-15664.0,9.603923797607422,2699.0,3930.851318359375,2282.0,1671.794921875,52330.0,902.5245361328125,1.1080031394958496
932396.1853406,0.8703855459883504,0.6000336850170446,0.3749056760002011,79.22735461687795,30.949874091916683,458.91440221187463,228.9193353664357,-174.84550435348302,28.518569158406596,nan,nan,nan,-0.2993839614991155,0.4115907568907995,0.8607916661069362,nan,nan,nan,31.02057162637242,nan,1.260995537756867,nan,2834712.0,2495332096.0,1714317164544.0,-608.0,0.37277743220329285,256.0,0.1569589227437973,-15616.0,9.574494361877441,2704.0,3938.13330078125,2266.0,1660.0732421875,52330.0,902.5245361328125,1.1080031394958496
932396.2523327,0.9256049795489336,0.8445952495912602,0.51052788691366,334.6237616019023,-33.63935797169114,496.3726046205738,228.9193353664357,-174.84550435348302,28.518569158406596,nan,nan,nan,0.21140885247093322,0.28241229276358376,0.9357080709243344,nan,nan,nan,14.528135888108627,nan,0.648629561278999,nan,2835032.0,2495332352.0,1714317164544.0,-624.0,0.38258737325668335,272.0,0.1667688488960266,-15600.0,9.56468391418457,2710.0,3946.871826171875,2279.0,1669.5970458984375,52330.0,902.5245361328125,1.1080031394958496
932396.319243,0.9362713432582664,0.9156759442398034,0.3573171442192501,399.9653191797445,48.494578472725436,441.87371769839956,228.9193353664357,-174.84550435348302,28.518569158406596,nan,nan,nan,0.3420919676266174,0.4466801656524169,0.8267102970799859,nan,nan,nan,13.656398883150919,nan,0.5860254701795338,nan,2835352.0,2495332352.0,1714317164544.0,-656.0,0.40220722556114197,272.0,0.1667688488960266,-15616.0,9.574494361877441,2710.0,3946.871826171875,2283.0,1672.5274658203125,52330.0,902.5245361328125,1.1080031394958496
932396.3862548,0.5464689702205023,0.5671585684110824,0.3152873951394255,51.765424257542506,53.30710412337612,436.6397264438718,228.9193353664357,-174.84550435348302,28.518569158406596,nan,nan,nan,-0.3543078222177864,0.45630521695371823,0.8162423145709305,nan,nan,nan,60.812444011322064,nan,2.4257980818387814,nan,2835672.0,2495332352.0,1714317164544.0,-624.0,0.38258737325668335,288.0,0.17657878994941711,-15680.0,9.613734245300293,2712.0,3949.78466796875,2285.0,1673.99267578125,52332.0,901.8018188476562,1.1088911294937134
932396.4542629,0.2207870916436714,0.6064846239943162,-0.20261751979547826,66.43502215826132,217.51163628776388,295.56411862645035,nan,nan,nan,-2.9175988446121366,-163.48455810231275,-20.714419722756485,nan,nan,nan,0.1387052420057469,0.7619923887801533,0.6325570766984137,nan,35.08852469927346,nan,0.9462770456807141,2835992.0,2495332352.0,1714317164544.0,-624.0,0.38258737325668335,256.0,0.1569589227437973,-15664.0,9.603923797607422,2702.0,3935.220458984375,2270.0,1663.003662109375,52332.0,901.8018188476562,1.1088911294937134
