timestamp,confidence_001,norm_pos_x_001,norm_pos_y_001,gaze_point_3d_x_001,gaze_point_3d_y_001,gaze_point_3d_z_001,eye_center0_3d_x_001,eye_center0_3d_y_001,eye_center0_3d_z_001,eye_center1_3d_x_001,eye_center1_3d_y_001,eye_center1_3d_z_001,gaze_normal0_x_001,gaze_normal0_y_001,gaze_normal0_z_001,gaze_normal1_x_001,gaze_normal1_y_001,gaze_normal1_z_001,diameter0_2d_001,diameter1_2d_001,diameter0_3d_001,diameter1_3d_001,Timestamp RAW (no units)_001,Timestamp CAL (mSecs)_001,System Timestamp CAL (mSecs)_001,Wide Range Accelerometer X RAW (no units)_001,Wide Range Accelerometer X CAL (m/(sec ^2))_001,Wide Range Accelerometer Y RAW (no units)_001,Wide Range Accelerometer Y CAL (m/(sec ^2))_001,Wide Range Accelerometer Z RAW (no units)_001,Wide Range Accelerometer Z CAL (m/(sec ^2))_001,VSenseBatt RAW (no units)_001,VSenseBatt CAL (m Volts)_001,Internal ADC A13 RAW (no units)_001,Internal ADC A13 CAL (m Volts)_001,GSR RAW (no units)_001,GSR CAL (kOhms)_001,GSR Conductance CAL (u Siemens)_001
75109.6474794,0.8924551904201508,0.549342122880957,0.08024511188386885,22.50636980706299,85.07585147514285,240.49883991498376,19.811783471170695,15.428428087773163,-20.953438230828773,-40.964716009512884,14.668517868984608,-20.9646236899488,0.01010342986987395,0.24567781376020564,0.9692988870987473,0.22805497670542327,0.2648395997835298,0.9369369850669728,38.659693480395546,48.105907858377,3.108564541479656,3.322611257364345,1760213.0,8363562.5,1710964998144.0,-416.0,0.25505825877189636,32.0,0.019619865342974663,-15872.0,9.731452941894531,2697.0,3927.9384765625,2280.0,1670.3297119140625,34562.0,614.0350952148438,1.6285713911056519
75109.7484213,0.9462220370769501,0.5490975617809013,0.07969911750790037,22.345986981854505,84.97428743034753,239.82294838118926,19.811783471170695,15.428428087773163,-20.953438230828773,-40.964716009512884,14.668517868984608,-20.9646236899488,0.009531014845423019,0.24622301535249475,0.9691663358096697,0.22805497670542327,0.2648395997835298,0.9369369850669728,38.74823293750261,48.105907858377,3.11565203679693,3.322611257364345,1760469.0,8363570.5,1710964998144.0,-400.0,0.24524831771850586,16.0,0.009809932671487331,-15808.0,9.69221305847168,2692.0,3920.656494140625,2238.0,1639.5604248046875,34563.0,613.483154296875,1.6300365924835205
75109.8499117,0.9462220370769501,0.5495127876109056,0.07864297922168761,22.324440879283657,84.49265288048247,237.68766189664683,19.811783471170695,15.428428087773163,-20.953438230828773,-40.964716009512884,14.668517868984608,-20.9646236899488,0.009531014845423019,0.24622301535249475,0.9691663358096697,0.229740868060411,0.265358685930464,0.9363780760697604,38.74823293750261,47.999997682297746,3.11565203679693,3.3156974569768245,1760725.0,8363578.0,1710964998144.0,-368.0,0.22562845051288605,0.0,0.0,-15760.0,9.6627836227417,2683.0,3907.548828125,2443.0,1789.7435302734375,34563.0,613.483154296875,1.6300365924835205
75109.9509214,0.9175164997577667,0.5491888368237785,0.07860765069590436,22.11230278990989,84.19400116492557,236.83358816445872,19.811783471170695,15.428428087773163,-20.953438230828773,-40.964716009512884,14.668517868984608,-20.9646236899488,0.00877065447555641,0.2457447963065364,0.969294883257066,0.229740868060411,0.265358685930464,0.9363780760697604,38.731960487441285,47.999997682297746,3.1143406129724784,3.3156974569768245,1760981.0,8363586.0,1710964998144.0,-368.0,0.22562845051288605,0.0,0.0,-15808.0,9.69221305847168,2679.0,3901.72314453125,2531.0,1854.21240234375,34562.0,614.0350952148438,1.6285713911056519
75110.0531544,0.9175164997577667,0.5489929099525226,0.07873421329706487,22.12036578186578,84.49883806594009,237.78896236322896,19.811783471170695,15.428428087773163,-20.953438230828773,-40.964716009512884,14.668517868984608,-20.9646236899488,0.00877065447555641,0.2457447963065364,0.969294883257066,0.22895180915536287,0.265739788170961,0.9364632582580799,38.731960487441285,48.04097783338619,3.1143406129724784,3.3180836205060737,1761237.0,8363594.0,1710964998144.0,-320.0,0.19619865715503693,48.0,0.02942979708313942,-15776.0,9.672593116760254,2696.0,3926.48193359375,2367.0,1734.06591796875,34562.0,614.0350952148438,1.6285713911056519
75110.1537986,0.9630818367004395,0.5498799759001336,0.07980799343968259,22.703119278308936,85.08637841280265,240.19066485649202,19.811783471170695,15.428428087773163,-20.953438230828773,-40.964716009512884,14.668517868984608,-20.9646236899488,0.010850020849789033,0.24534970105421827,0.9693739223025163,0.22895180915536287,0.265739788170961,0.9364632582580799,38.70846250243852,48.04097783338619,3.112823855589648,3.3180836205060737,1761493.0,8363601.5,1710964998144.0,-320.0,0.19619865715503693,16.0,0.009809932671487331,-15792.0,9.682403564453125,2687.0,3913.374267578125,2512.0,1840.2930908203125,34563.0,613.483154296875,1.6300365924835205
75110.2548324,0.948023647069931,0.5499887202341981,0.07970677972641005,22.697266548602578,84.92093000947787,239.6461715457285,19.811783471170695,15.428428087773163,-20.953438230828773,-40.964716009512884,14.668517868984608,-20.9646236899488,0.010850020849789033,0.24534970105421827,0.9693739223025163,0.2293902713460492,0.2655808563342532,0.9364010423747672,38.70846250243852,48.00633837600064,3.112823855589648,3.316360986310379,1761749.0,8363609.5,1710964998144.0,-320.0,0.19619865715503693,80.0,0.04904966428875923,-15760.0,9.6627836227417,2684.0,3909.005126953125,2567.0,1880.5860595703125,34562.0,614.0350952148438,1.6285713911056519
75110.3558983,0.9163464307785034,0.5508850612338688,0.08017396684148093,23.299419311204588,85.67803057706811,242.09273312046182,19.811783471170695,15.428428087773163,-20.953438230828773,-40.964716009512884,14.668517868984608,-20.9646236899488,0.012956485012137026,0.24602961789709962,0.9691757098759427,0.2293902713460492,0.2655808563342532,0.9364010423747672,38.71741098295867,48.00633837600064,3.113822477315836,3.316360986310379,1762005.0,8363617.0,1710964998144.0,-336.0,0.20600858330726624,48.0,0.02942979708313942,-15760.0,9.6627836227417,2697.0,3927.9384765625,2391.0,1751.6483154296875,34563.0,613.483154296875,1.6300365924835205
75110.4569008,0.9730263352394104,0.5520456328773767,0.08166703645280693,24.093634671300734,86.45778485787376,245.36324304788005,19.811783471170695,15.428428087773163,-20.953438230828773,-40.964716009512884,14.668517868984608,-20.9646236899488,0.015684920282820487,0.245360870464159,0.9693049192698817,0.2293902713460492,0.2655808563342532,0.9364010423747672,38.63764937680818,48.00633837600064,3.107445926070027,3.316360986310379,1762261.0,8363625.0,1710964998144.0,-416.0,0.25505825877189636,16.0,0.009809932671487331,-15792.0,9.682403564453125,2697.0,3927.9384765625,2307.0,1690.10986328125,34562.0,614.0350952148438,1.6285713911056519
75110.5580519,0.9797106385231018,0.5516285094036285,0.08245497251969913,24.12984436562252,87.03286863084611,247.60488297651253,19.811783471170695,15.428428087773163,-20.953438230828773,-40.964716009512884,14.668517868984608,-20.9646236899488,0.015684920282820487,0.245360870464159,0.9693049192698817,0.22770137539386365,0.2655130504442916,0.9368323775828362,38.63764937680818,47.874105342547516,3.107445926070027,3.307630738505194,1762517.0,8363633.0,1710964998144.0,-400.0,0.24524831771850586,48.0,0.02942979708313942,-15776.0,9.672593116760254,2691.0,3919.199951171875,2258.0,1654.21240234375,34562.0,614.0350952148438,1.6285713911056519
75110.6588681,0.9880845248699188,0.5519300937037055,0.08188056020572565,24.103583798490515,86.61712516261946,245.97970980742724,19.811783471170695,15.428428087773163,-20.953438230828773,-40.964716009512884,14.668517868984608,-20.9646236899488,0.015684920282820487,0.245360870464159,0.9693049192698817,0.22892286837596726,0.26557007686980516,0.9365184753147614,38.63764937680818,48.24007144624283,3.107445926070027,3.333561090872574,1762773.0,8363640.5,1710964998144.0,-416.0,0.25505825877189636,32.0,0.019619865342974663,-15760.0,9.6627836227417,2694.0,3923.5693359375,2235.0,1637.3626708984375,34563.0,613.483154296875,1.6300365924835205
75110.759982,0.9653909206390381,0.5534055466211701,0.08337501874794451,25.14897873252826,87.74856302663781,250.27333425008618,19.811783471170695,15.428428087773163,-20.953438230828773,-40.964716009512884,14.668517868984608,-20.9646236899488,0.019162566359374668,0.24521605264556262,0.96927905351114,0.22892286837596726,0.26557007686980516,0.9365184753147614,38.473321319048274,48.24007144624283,3.094370954235259,3.333561090872574,1763029.0,8363648.5,1710964998144.0,-416.0,0.25505825877189636,32.0,0.019619865342974663,-15728.0,9.643163681030273,2699.0,3930.851318359375,2243.0,1643.223388671875,34562.0,614.0350952148438,1.6285713911056519
75110.8609252,0.9426752924919128,0.5542292989278617,0.08437231322711702,25.74776957713892,88.35548203788682,252.74083340329506,19.811783471170695,15.428428087773163,-20.953438230828773,-40.964716009512884,14.668517868984608,-20.9646236899488,0.0211070152744398,0.24485112086706814,0.9693309148667162,0.22892286837596726,0.26557007686980516,0.9365184753147614,38.47063431482512,48.24007144624283,3.0944599683459177,3.333561090872574,1763285.0,8363656.0,1710964998144.0,-400.0,0.24524831771850586,16.0,0.009809932671487331,-15744.0,9.652973175048828,2698.0,3929.394775390625,2237.0,1638.827880859375,34562.0,614.0350952148438,1.6285713911056519
75110.961913,0.9426752924919128,0.5544029467983387,0.08503990970513353,25.730704735950695,87.87910967048091,251.8857918344846,19.811783471170695,15.428428087773163,-20.953438230828773,-40.964716009512884,14.668517868984608,-20.9646236899488,0.0211070152744398,0.24485112086706814,0.9693309148667162,0.2296090932973982,0.26392145201129896,0.9368164876022381,38.47063431482512,48.23843676156563,3.0944599683459177,3.33403570311299,1763541.0,8363664.0,1710964998144.0,-416.0,0.25505825877189636,32.0,0.019619865342974663,-15760.0,9.6627836227417,2694.0,3923.5693359375,2228.0,1632.234375,34562.0,614.0350952148438,1.6285713911056519
75111.0645071,0.9426752924919128,0.554308694903828,0.08544314426769306,25.743113724614744,87.96232167923364,252.44016150396956,19.811783471170695,15.428428087773163,-20.953438230828773,-40.964716009512884,14.668517868984608,-20.9646236899488,0.0211070152744398,0.24485112086706814,0.9693309148667162,0.2292244324301133,0.26352497903936206,0.9370222756153647,38.47063431482512,48.010278119675306,3.0944599683459177,3.3186114822155677,1763797.0,8363672.0,1710964998144.0,-384.0,0.23543837666511536,48.0,0.02942979708313942,-15728.0,9.643163681030273,2694.0,3923.5693359375,2221.0,1627.106201171875,34562.0,614.0350952148438,1.6285713911056519
75111.1657931,0.9602247476577759,0.5553791219739119,0.08759114071288598,26.53340693161555,88.53959474505018,255.73658115599372,19.811783471170695,15.428428087773163,-20.953438230828773,-40.964716009512884,14.668517868984608,-20.9646236899488,0.023633976513048723,0.24288758130196478,0.9697664966389911,0.2292244324301133,0.26352497903936206,0.9370222756153647,38.69054730089704,48.010278119675306,3.1127991178183567,3.3186114822155677,1764053.0,8363679.5,1710964998144.0,-400.0,0.24524831771850586,96.0,0.05885959416627884,-15776.0,9.672593116760254,2680.0,3903.179443359375,2423.0,1775.091552734375,34561.0,614.5880126953125,1.6271061897277832
75111.2669267,0.9602247476577759,0.5557487930043365,0.0874474908154923,26.48450750342135,87.87760794422955,253.69672185710778,19.811783471170695,15.428428087773163,-20.953438230828773,-40.964716009512884,14.668517868984608,-20.9646236899488,0.023633976513048723,0.24288758130196478,0.9697664966389911,0.2307084897900317,0.2626577749046189,0.9369015348588972,38.69054730089704,48.18828196693598,3.1127991178183567,3.3311221663010127,1764309.0,8363687.5,1710964998144.0,-432.0,0.2648681700229645,64.0,0.039239730685949326,-15744.0,9.652973175048828,2672.0,3891.5283203125,2501.0,1832.234375,34562.0,614.0350952148438,1.6285713911056519
75111.3678358,0.9670853912830353,0.5568186445268652,0.089321015421571,27.289354081435633,88.5300077941205,257.0174110267001,19.811783471170695,15.428428087773163,-20.953438230828773,-40.964716009512884,14.668517868984608,-20.9646236899488,0.02616458340472693,0.24140406038185186,0.970071901565246,0.2307084897900317,0.2626577749046189,0.9369015348588972,38.8291541473923,48.18828196693598,3.1242956461052165,3.3311221663010127,1764565.0,8363695.5,1710964998144.0,-448.0,0.274678111076355,32.0,0.019619865342974663,-15776.0,9.672593116760254,2695.0,3925.025634765625,2358.0,1727.4725341796875,34562.0,614.0350952148438,1.6285713911056519
75111.4691317,0.9670853912830353,0.5570863564724962,0.08912534182007048,27.249213797353278,88.06938541406087,255.51391230847844,19.811783471170695,15.428428087773163,-20.953438230828773,-40.964716009512884,14.668517868984608,-20.9646236899488,0.02616458340472693,0.24140406038185186,0.970071901565246,0.23178274321644302,0.2621862925141377,0.9367684388175936,38.8291541473923,48.254563577816064,3.1242956461052165,3.336195307744295,1764821.0,8363703.0,1710964998144.0,-464.0,0.2844880521297455,32.0,0.019619865342974663,-15840.0,9.711833000183105,2694.0,3923.5693359375,2283.0,1672.5274658203125,34562.0,614.0350952148438,1.6285713911056519
75111.5698665,0.9594147801399231,0.5566287932958003,0.08870295164319875,26.902608725461526,87.69311598246622,254.10972917149715,19.811783471170695,15.428428087773163,-20.953438230828773,-40.964716009512884,14.668517868984608,-20.9646236899488,0.025080126939633712,0.24137580349109794,0.9701075758500801,0.23178274321644302,0.2621862925141377,0.9367684388175936,38.83430447775462,48.254563577816064,3.1247726574080756,3.336195307744295,1765077.0,8363711.0,1710964998144.0,-400.0,0.24524831771850586,32.0,0.019619865342974663,-15840.0,9.711833000183105,2696.0,3926.48193359375,2251.0,1649.084228515625,34562.0,614.0350952148438,1.6285713911056519
75111.670878,0.9558261334896088,0.5564599196615012,0.08929502905811415,26.771745936652117,87.3603821910534,253.61661231934622,19.811783471170695,15.428428087773163,-20.953438230828773,-40.964716009512884,14.668517868984608,-20.9646236899488,0.02467666422047513,0.24005818002787518,0.9704448116429156,0.23178274321644302,0.2621862925141377,0.9367684388175936,38.93338185629541,48.254563577816064,3.132982630816774,3.336195307744295,1765333.0,8363719.0,1710964998144.0,-368.0,0.22562845051288605,48.0,0.02942979708313942,-15760.0,9.6627836227417,2697.0,3927.9384765625,2241.0,1641.75830078125,34562.0,614.0350952148438,1.6285713911056519
75111.7719231,0.9558261334896088,0.5568807909313793,0.08812955235521225,26.710357215062057,86.85284010555776,251.21894174137026,19.811783471170695,15.428428087773163,-20.953438230828773,-40.964716009512884,14.668517868984608,-20.9646236899488,0.02467666422047513,0.24005818002787518,0.9704448116429156,0.23348238806916066,0.2628901982872466,0.936148876037361,38.93338185629541,48.30981853869729,3.132982630816774,3.3406849002905923,1765589.0,8363726.5,1710964998144.0,-368.0,0.22562845051288605,48.0,0.02942979708313942,-15744.0,9.652973175048828,2694.0,3923.5693359375,2229.0,1632.967041015625,34562.0,614.0350952148438,1.6285713911056519
75111.8728827,0.9339387118816376,0.5567068921100133,0.08857486922082547,26.57824956735528,86.5578106595257,250.71741503232678,19.811783471170695,15.428428087773163,-20.953438230828773,-40.964716009512884,14.668517868984608,-20.9646236899488,0.02426190788603984,0.23898838358145144,0.9707192757635208,0.23348238806916066,0.2628901982872466,0.936148876037361,38.881767784291576,48.30981853869729,3.128946339313063,3.3406849002905923,1765845.0,8363734.5,1710964998144.0,-400.0,0.24524831771850586,96.0,0.05885959416627884,-15776.0,9.672593116760254,2695.0,3925.025634765625,2229.0,1632.967041015625,34562.0,614.0350952148438,1.6285713911056519
75111.9774048,0.9325900673866272,0.5562058396935337,0.09152564675192376,26.65667513213721,86.80017618321031,253.75050274209315,19.811783471170695,15.428428087773163,-20.953438230828773,-40.964716009512884,14.668517868984608,-20.9646236899488,0.02426190788603984,0.23898838358145144,0.9707192757635208,0.23143404440639656,0.25941751279276065,0.9376251047972831,38.881767784291576,48.12410317611624,3.128946339313063,3.3284796666745438,1766101.0,8363742.0,1710964998144.0,-400.0,0.24524831771850586,64.0,0.039239730685949326,-15744.0,9.652973175048828,2687.0,3913.374267578125,2444.0,1790.4761962890625,34562.0,614.0350952148438,1.6285713911056519
75112.0809586,0.9339387118816376,0.5564786521640538,0.09202889594676733,26.622809699730713,86.18617124820983,252.3388645922623,19.811783471170695,15.428428087773163,-20.953438230828773,-40.964716009512884,14.668517868984608,-20.9646236899488,0.02426190788603984,0.23898838358145144,0.9707192757635208,0.23251602068590527,0.25775388470175936,0.9378162053651792,38.881767784291576,48.402462872390416,3.128946339313063,3.348432394529124,1766357.0,8363750.0,1710964998144.0,-448.0,0.274678111076355,32.0,0.019619865342974663,-15808.0,9.69221305847168,2697.0,3927.9384765625,2333.0,1709.157470703125,34561.0,614.5880126953125,1.6271061897277832
75112.1821127,0.9469591081142426,0.5560995396523843,0.09302395712732048,26.33510030573519,85.54008964754087,251.2408156896981,19.811783471170695,15.428428087773163,-20.953438230828773,-40.964716009512884,14.668517868984608,-20.9646236899488,0.023358454129006525,0.23661822601520144,0.9713218816325112,0.23251602068590527,0.25775388470175936,0.9378162053651792,38.89310838585854,48.402462872390416,3.1302361066629256,3.348432394529124,1766613.0,8363758.0,1710964998144.0,-432.0,0.2648681700229645,16.0,0.009809932671487331,-15824.0,9.70202350616455,2695.0,3925.025634765625,2278.0,1668.864501953125,34562.0,614.0350952148438,1.6285713911056519
75112.2828675,0.9287722110748291,0.5551185528950751,0.09175498285660966,25.621882925716733,84.87367568909845,248.33997418284076,19.811783471170695,15.428428087773163,-20.953438230828773,-40.964716009512884,14.668517868984608,-20.9646236899488,0.02104051148510321,0.23719622133815585,0.9712338798967763,0.23251602068590527,0.25775388470175936,0.9378162053651792,39.01413842121061,48.402462872390416,3.13998914611632,3.348432394529124,1766869.0,8363765.5,1710964998144.0,-432.0,0.2648681700229645,0.0,0.0,-15824.0,9.70202350616455,2687.0,3913.374267578125,2469.0,1808.791259765625,34562.0,614.0350952148438,1.6285713911056519
75112.3839299,0.9104183912277222,0.555737602610144,0.09186145859882322,25.55529082842237,83.77160426409719,245.17169743272262,19.811783471170695,15.428428087773163,-20.953438230828773,-40.964716009512884,14.668517868984608,-20.9646236899488,0.02104051148510321,0.23719622133815585,0.9712338798967763,0.23498223211081054,0.2557245920750841,0.9377570493471394,39.01413842121061,48.4103044707701,3.13998914611632,3.350055625049296,1767125.0,8363773.5,1710964998144.0,-400.0,0.24524831771850586,16.0,0.009809932671487331,-15744.0,9.652973175048828,2687.0,3913.374267578125,2558.0,1873.99267578125,34562.0,614.0350952148438,1.6285713911056519
75112.4847916,0.9258167743682861,0.5546590251791181,0.09119672068268936,24.796191052150498,82.89616536556977,242.15123988030854,19.811783471170695,15.428428087773163,-20.953438230828773,-40.964716009512884,14.668517868984608,-20.9646236899488,0.018493083103082994,0.23655663666974844,0.9714416933222699,0.23498223211081054,0.2557245920750841,0.9377570493471394,38.867031092066256,48.4103044707701,3.128478546936913,3.350055625049296,1767381.0,8363781.0,1710964998144.0,-384.0,0.23543837666511536,64.0,0.039239730685949326,-15760.0,9.6627836227417,2696.0,3926.48193359375,2382.0,1745.054931640625,34561.0,614.5880126953125,1.6271061897277832
75112.5857568,0.9330637454986572,0.5553027862788423,0.0905329033390877,24.731188598570718,81.95497280915785,238.8840198302812,19.811783471170695,15.428428087773163,-20.953438230828773,-41.0006028508056,14.58802227722682,-20.981273359669824,0.018493083103082994,0.23655663666974844,0.9714416933222699,0.23765354938974972,0.25514116819460947,0.9372426445455541,38.867031092066256,48.46802062006551,3.128478546936913,3.361916292310723,1767637.0,8363789.0,1710964998144.0,-416.0,0.25505825877189636,80.0,0.04904966428875923,-15728.0,9.643163681030273,2696.0,3926.48193359375,2296.0,1682.05126953125,34562.0,614.0350952148438,1.6285713911056519
75112.6861516,0.9183519184589386,0.5543081392427196,0.090011867201651,24.05650009610497,81.16416472148899,236.23513691029805,19.811783471170695,15.428428087773163,-20.953438230828773,-41.0006028508056,14.58802227722682,-20.981273359669824,0.016148358073054873,0.23580939799435896,0.971665147233903,0.23765354938974972,0.25514116819460947,0.9372426445455541,38.94874052523224,48.46802062006551,3.1352130219779286,3.361916292310723,1767893.0,8363797.0,1710964998144.0,-432.0,0.2648681700229645,112.0,0.06866952776908875,-15744.0,9.652973175048828,2684.0,3909.005126953125,2466.0,1806.5933837890625,34562.0,614.0350952148438,1.6285713911056519
75112.7872164,0.9294587671756744,0.5547934040346364,0.08933064187387285,24.018073073186798,80.53475843083262,233.89093599370204,19.811783471170695,15.428428087773163,-20.953438230828773,-41.0006028508056,14.58802227722682,-20.981273359669824,0.016148358073054873,0.23580939799435896,0.971665147233903,0.23958865389377845,0.25483650873570707,0.9368327656208247,38.94874052523224,48.47806659820431,3.1352130219779286,3.363091147937313,1768149.0,8363804.5,1710964998144.0,-432.0,0.2648681700229645,32.0,0.019619865342974663,-15824.0,9.70202350616455,2689.0,3916.287109375,2322.0,1701.098876953125,34562.0,614.0350952148438,1.6285713911056519
75112.8877707,0.9325420558452606,0.5541490605694093,0.08835456010659326,23.596138463242426,80.19300051799053,232.2209176507244,19.811783471170695,15.428428087773163,-20.953438230828773,-41.0006028508056,14.58802227722682,-20.981273359669824,0.014634329359154942,0.2364364527957872,0.9715367415561561,0.23958865389377845,0.25483650873570707,0.9368327656208247,38.939382902369275,48.47806659820431,3.1343241059860896,3.363091147937313,1768405.0,8363812.5,1710964998144.0,-448.0,0.274678111076355,64.0,0.039239730685949326,-15744.0,9.652973175048828,2696.0,3926.48193359375,2270.0,1663.003662109375,34561.0,614.5880126953125,1.6271061897277832
75112.9889406,0.9247093200683594,0.5544490835319756,0.08813313776780662,23.576000810202252,79.77232644509613,230.83375574376066,19.811783471170695,15.428428087773163,-20.953438230828773,-41.0006028508056,14.58802227722682,-20.981273359669824,0.014634329359154942,0.2364364527957872,0.9715367415561561,0.24077937638701638,0.25431230933452087,0.9366699211716059,38.939382902369275,48.48115956001526,3.1343241059860896,3.3633510149488286,1768661.0,8363820.5,1710964998144.0,-400.0,0.24524831771850586,48.0,0.02942979708313942,-15760.0,9.6627836227417,2696.0,3926.48193359375,2243.0,1643.223388671875,34562.0,614.0350952148438,1.6285713911056519
75113.090079,0.9325420558452606,0.5552107593677127,0.08714117010633204,23.524326736959527,78.8147133418658,227.33822063864557,19.811783471170695,15.428428087773163,-20.953438230828773,-41.0006028508056,14.58802227722682,-20.981273359669824,0.014634329359154942,0.2364364527957872,0.9715367415561561,0.2438020860612758,0.2537019873390326,0.9360533341922327,38.939382902369275,48.60256420212662,3.1343241059860896,3.3724905859264007,1768917.0,8363828.0,1710964998144.0,-416.0,0.25505825877189636,80.0,0.04904966428875923,-15744.0,9.652973175048828,2682.0,3906.09228515625,2439.0,1786.813232421875,34561.0,614.5880126953125,1.6271061897277832
75113.1907683,0.9707134366035461,0.5554286230703077,0.08743036882123201,23.66356770436845,78.93419145242089,227.87766199181007,19.811783471170695,15.428428087773163,-20.953438230828773,-41.0006028508056,14.58802227722682,-20.981273359669824,0.015146140218381312,0.23629657403677404,0.9715629282424111,0.2438020860612758,0.2537019873390326,0.9360533341922327,38.85245913686677,48.60256420212662,3.127515146161163,3.3724905859264007,1769173.0,8363836.0,1710964998144.0,-416.0,0.25505825877189636,16.0,0.009809932671487331,-15760.0,9.6627836227417,2696.0,3926.48193359375,2322.0,1701.098876953125,34561.0,614.5880126953125,1.6271061897277832
75113.291788,0.9694724977016449,0.5555986870672232,0.0871500553721698,23.775100814331143,79.1467957370068,228.28781880579808,19.811783471170695,15.428428087773163,-20.953438230828773,-41.0006028508056,14.58802227722682,-20.981273359669824,0.015548174123364141,0.23706744125472928,0.9713687675534791,0.2438020860612758,0.2537019873390326,0.9360533341922327,38.848449672563426,48.60256420212662,3.1273532848845074,3.3724905859264007,1769429.0,8363844.0,1710964998144.0,-416.0,0.25505825877189636,64.0,0.039239730685949326,-15808.0,9.69221305847168,2698.0,3929.394775390625,2277.0,1668.1318359375,34561.0,614.5880126953125,1.6271061897277832
75113.3921433,0.9694724977016449,0.555731092377636,0.08687626175797525,23.765248020003426,79.00268451919555,227.6751662575345,19.811783471170695,15.428428087773163,-20.953438230828773,-41.0006028508056,14.58802227722682,-20.981273359669824,0.015548174123364141,0.23706744125472928,0.9713687675534791,0.24432825075545506,0.25376573284929244,0.9358988506853938,38.848449672563426,48.46785486342193,3.1273532848845074,3.3630877531065053,1769685.0,8363851.5,1710964998144.0,-368.0,0.22562845051288605,32.0,0.019619865342974663,-15840.0,9.711833000183105,2695.0,3925.025634765625,2251.0,1649.084228515625,34561.0,614.5880126953125,1.6271061897277832
75113.4950974,0.9694724977016449,0.555605624705828,0.08727765019167932,23.775117748546343,79.10987497038411,228.27076504435541,19.811783471170695,15.428428087773163,-20.953438230828773,-41.0006028508056,14.58802227722682,-20.981273359669824,0.015548174123364141,0.23706744125472928,0.9713687675534791,0.24382705136957594,0.25346765593691833,0.936110312096957,38.848449672563426,48.20046638210876,3.1273532848845074,3.3449897601450944,1769941.0,8363859.5,1710964998144.0,-384.0,0.23543837666511536,0.0,0.0,-15824.0,9.70202350616455,2694.0,3923.5693359375,2233.0,1635.8974609375,34561.0,614.5880126953125,1.6271061897277832
75113.5960295,0.9647572934627533,0.5565935733257227,0.08926354244879975,24.413905899561577,79.50174758873408,230.77451556125328,19.811783471170695,15.428428087773163,-20.953438230828773,-41.0006028508056,14.58802227722682,-20.981273359669824,0.01786878156429068,0.23526035998000405,0.9717681151733096,0.24382705136957594,0.25346765593691833,0.936110312096957,38.89475765610145,48.20046638210876,3.1314632860534064,3.3449897601450944,1770197.0,8363867.0,1710964998144.0,-400.0,0.24524831771850586,0.0,0.0,-15808.0,9.69221305847168,2689.0,3916.287109375,2214.0,1621.97802734375,34561.0,614.5880126953125,1.6271061897277832
75113.6970711,0.9760389626026154,0.5580651794203355,0.09075740047736625,25.398569924893884,80.45551884078344,234.56846161121933,19.811783471170695,15.428428087773163,-20.953438230828773,-41.0006028508056,14.58802227722682,-20.981273359669824,0.021339347253757607,0.2351163599033523,0.971732951774602,0.24382705136957594,0.25346765593691833,0.936110312096957,38.8552649203137,48.20046638210876,3.128143000180902,3.3449897601450944,1770453.0,8363875.0,1710964998144.0,-352.0,0.21581850945949554,16.0,0.009809932671487331,-15840.0,9.711833000183105,2697.0,3927.9384765625,2223.0,1628.5714111328125,34561.0,614.5880126953125,1.6271061897277832
75113.7978132,0.9618726670742035,0.5574381104787605,0.09133452778144602,25.46361653272418,81.33423050451546,237.5811656878546,19.811783471170695,15.428428087773163,-20.953438230828773,-41.0006028508056,14.58802227722682,-20.981273359669824,0.021339347253757607,0.2351163599033523,0.971732951774602,0.24134499569455603,0.2543622698180344,0.9365107734277337,38.8552649203137,48.30216907079727,3.128143000180902,3.3501885612386615,1770709.0,8363883.0,1710964998144.0,-416.0,0.25505825877189636,16.0,0.009809932671487331,-15872.0,9.731452941894531,2686.0,3911.91796875,2437.0,1785.3480224609375,34561.0,614.5880126953125,1.6271061897277832
75113.8980471,0.9654254615306854,0.5578503532059635,0.090271183243118,25.756603159911222,81.9779822221296,238.65568288946645,19.811783471170695,15.428428087773163,-20.953438230828773,-41.0006028508056,14.58802227722682,-20.981273359669824,0.022320133065987218,0.23765703154365492,0.9710926562474741,0.24134499569455603,0.2543622698180344,0.9365107734277337,38.91138301954319,48.30216907079727,3.1319837524473177,3.3501885612386615,1770965.0,8363890.5,1710964998144.0,-448.0,0.274678111076355,32.0,0.019619865342974663,-15824.0,9.70202350616455,2680.0,3903.179443359375,2523.0,1848.3516845703125,34561.0,614.5880126953125,1.6271061897277832
75113.9982038,0.9591673612594604,0.5579151776107999,0.08921460264073455,25.745117888644025,82.0993790468014,238.2255429337502,19.811783471170695,15.428428087773163,-20.953438230828773,-41.0006028508056,14.58802227722682,-20.981273359669824,0.022320133065987218,0.23765703154365492,0.9710926562474741,0.24161989228621505,0.2559423294151878,0.9360092690059888,38.91138301954319,48.39737027982999,3.1319837524473177,3.355014016868335,1771221.0,8363898.5,1710964998144.0,-400.0,0.24524831771850586,16.0,0.009809932671487331,-15760.0,9.6627836227417,2680.0,3903.179443359375,2566.0,1879.853515625,34561.0,614.5880126953125,1.6271061897277832
75114.0987662,0.9417749643325806,0.5600564880074295,0.09047794540278142,27.274063600576973,83.83580228149962,244.12731579289306,19.811783471170695,15.428428087773163,-20.953438230828773,-41.0006028508056,14.58802227722682,-20.981273359669824,0.027393178481260286,0.23903844157042517,0.9706236331474092,0.24161989228621505,0.2559423294151878,0.9360092690059888,38.438281510740346,48.39737027982999,3.093358031612638,3.355014016868335,1771477.0,8363906.0,1710964998144.0,-400.0,0.24524831771850586,32.0,0.019619865342974663,-15744.0,9.652973175048828,2672.0,3891.5283203125,2570.0,1882.783935546875,34561.0,614.5880126953125,1.6271061897277832
75114.1990165,0.9571110308170319,0.5602712044119166,0.08754752471332439,27.230684390538393,84.11283867476358,242.7149512035646,19.811783471170695,15.428428087773163,-20.953438230828773,-41.0006028508056,14.58802227722682,-20.981273359669824,0.027393178481260286,0.23903844157042517,0.9706236331474092,0.2425189750781751,0.2602257107780048,0.9345946320074354,38.438281510740346,47.99799795712146,3.093358031612638,3.3256395037082402,1771733.0,8363914.0,1710964998144.0,-384.0,0.23543837666511536,80.0,0.04904966428875923,-15728.0,9.643163681030273,2687.0,3913.374267578125,2609.0,1911.3553466796875,34561.0,614.5880126953125,1.6271061897277832
75114.3009527,0.8842398822307587,0.5613827460844136,0.08975984001520454,28.041274694119192,84.65333190790008,245.9015436398018,19.811783471170695,15.428428087773163,-20.953438230828773,-41.0006028508056,14.58802227722682,-20.981273359669824,0.030025102097665048,0.2370430431896652,0.9710350606025548,0.2425189750781751,0.2602257107780048,0.9345946320074354,38.57285703312904,47.99799795712146,3.1043844117679535,3.3256395037082402,1771989.0,8363922.0,1710964998144.0,-400.0,0.24524831771850586,96.0,0.05885959416627884,-15744.0,9.652973175048828,2693.0,3922.11279296875,2400.0,1758.24169921875,34561.0,614.5880126953125,1.6271061897277832
75114.4018063,0.8742424845695496,0.5616730972628088,0.09007962837547467,27.99819925582739,84.08255611950437,244.47289792771377,19.811783471170695,15.428428087773163,-20.953438230828773,-41.0006028508056,14.58802227722682,-20.981273359669824,0.030025102097665048,0.2370430431896652,0.9710350606025548,0.2436577400833313,0.2588279115667336,0.9346865880558505,38.57285703312904,47.81583764686562,3.1043844117679535,3.31264512269781,1772245.0,8363929.5,1710964998144.0,-384.0,0.23543837666511536,48.0,0.02942979708313942,-15744.0,9.652973175048828,2696.0,3926.48193359375,2307.0,1690.10986328125,34561.0,614.5880126953125,1.6271061897277832
75114.5029321,0.7849142730236054,0.5709885576408794,0.11316708984980473,35.6150587966133,87.86452063433472,274.4550271983618,19.811783471170695,15.428428087773163,-20.953438230828773,-41.0006028508056,14.58802227722682,-20.981273359669824,0.05221828762611846,0.21229314147332604,0.9758098546954639,0.2436577400833313,0.2588279115667336,0.9346865880558505,37.999711066342684,47.81583764686562,3.058966547413498,3.31264512269781,1772501.0,8363937.5,1710964998144.0,-448.0,0.274678111076355,112.0,0.06866952776908875,-15760.0,9.6627836227417,2699.0,3930.851318359375,2274.0,1665.93408203125,34560.0,615.1419677734375,1.6256409883499146
75114.6036662,0.5243349903850869,0.5548505182823766,0.1813559793229773,44.390739334319164,110.55435111826841,442.3145092508609,nan,nan,nan,-249.6007566483173,310.9435017238486,91.01237630905027,nan,nan,nan,0.5879829919652728,-0.4007783012111605,0.7026042658836212,nan,47.927665862164226,nan,3.330006020472434,1772757.0,8363945.5,1710964998144.0,-464.0,0.2844880521297455,112.0,0.06866952776908875,-15744.0,9.652973175048828,2697.0,3927.9384765625,2254.0,1651.2821044921875,34561.0,614.5880126953125,1.6271061897277832
75114.7048191,0.24666120671105946,0.6584928024211866,0.02595128490070464,118.0999027111751,171.22865321276078,399.6804605226896,nan,nan,nan,-249.6007566483173,310.9435017238486,91.01237630905027,nan,nan,nan,0.7354013187189848,-0.2794296970221758,0.6173361684272787,nan,47.09318074874556,nan,3.3122468750508216,1773013.0,8363953.0,1710964998144.0,-432.0,0.2648681700229645,64.0,0.039239730685949326,-15776.0,9.672593116760254,2682.0,3906.09228515625,2442.0,1789.010986328125,34560.0,615.1419677734375,1.6256409883499146
75114.8058408,0.21448493060257898,0.6545444870126957,-0.052851221102911516,122.698462340574,216.3220155427906,411.0749731446528,nan,nan,nan,-249.6007566483173,310.9435017238486,91.01237630905027,nan,nan,nan,0.7445984379777827,-0.18924297236211596,0.640125193671205,nan,45.12831156208716,nan,3.1487730848572593,1773269.0,8363961.0,1710964998144.0,-400.0,0.24524831771850586,32.0,0.019619865342974663,-15776.0,9.672593116760254,2680.0,3903.179443359375,2527.0,1851.2821044921875,34561.0,614.5880126953125,1.6271061897277832
75114.9069048,0.16942569808691782,0.6142180175263674,0.13142483654035164,84.57751134121094,126.01642538552831,413.69931691941974,nan,nan,nan,-249.6007566483173,310.9435017238486,91.01237630905027,nan,nan,nan,0.6683565359790565,-0.3698541526766406,0.6453738812207389,nan,47.592049802732376,nan,3.3404499492731983,1773525.0,8363969.0,1710964998144.0,-384.0,0.23543837666511536,32.0,0.019619865342974663,-15760.0,9.6627836227417,2691.0,3919.199951171875,2360.0,1728.937744140625,34560.0,615.1419677734375,1.6256409883499146
75115.0079163,0.17438052532543594,0.6725337545884651,0.05075445698351411,123.30250426134381,154.99166205374843,385.32884154069956,nan,nan,nan,-249.6007566483173,310.9435017238486,91.01237630905027,nan,nan,nan,0.7458065218193222,-0.3119036793402004,0.5886329304632986,nan,46.49978650030861,nan,3.2925257992960453,1773781.0,8363976.5,1710964998144.0,-464.0,0.2844880521297455,-16.0,-0.009809932671487331,-15776.0,9.672593116760254,2695.0,3925.025634765625,2292.0,1679.120849609375,34561.0,614.5880126953125,1.6271061897277832
75115.1091092,0.1810126423068315,0.631377939651578,0.03600054597165547,101.61703382656614,172.32474167325427,418.77891367364566,nan,nan,nan,-249.6007566483173,310.9435017238486,91.01237630905027,nan,nan,nan,0.7024355809497669,-0.2772375201011887,0.6555330747291906,nan,47.08797426742924,nan,3.2876485912760165,1774037.0,8363984.5,1710964998144.0,-400.0,0.24524831771850586,-32.0,-0.019619865342974663,-15776.0,9.672593116760254,2680.0,3903.179443359375,2455.0,1798.5347900390625,34560.0,615.1419677734375,1.6256409883499146
75115.2097528,0.18810260673036014,0.5270417754633326,0.024083238599578727,27.82656797221148,204.4834029986222,493.1321680792525,nan,nan,nan,-249.6007566483173,310.9435017238486,91.01237630905027,nan,nan,nan,0.5548546492410575,-0.2129201974504528,0.8042395835404044,nan,47.25877174339849,nan,3.1903776216655264,1774293.0,8363992.0,1710964998144.0,-464.0,0.2844880521297455,-16.0,-0.009809932671487331,-15744.0,9.652973175048828,2696.0,3926.48193359375,2331.0,1707.6922607421875,34561.0,614.5880126953125,1.6271061897277832
75115.3100142,0.16241113788853376,0.5105985287924535,0.02151671166531466,14.035667757188548,210.10899803314297,503.7207946774296,nan,nan,nan,-249.6007566483173,310.9435017238486,91.01237630905027,nan,nan,nan,0.5272728488110117,-0.20166900738141136,0.8254168367367585,nan,49.98613307329455,nan,3.3572063668238554,1774549.0,8364000.0,1710964998144.0,-432.0,0.2648681700229645,0.0,0.0,-15824.0,9.70202350616455,2696.0,3926.48193359375,2273.0,1665.201416015625,34560.0,615.1419677734375,1.6256409883499146
75115.4109198,0.16035011931782214,0.49977887227523243,0.0197448143249791,4.633545688451193,213.8851767378444,510.469884367075,nan,nan,nan,-249.6007566483173,310.9435017238486,91.01237630905027,nan,nan,nan,0.5084686046735369,-0.1941166499720084,0.8389150161160494,nan,51.85339046018622,nan,3.472715154962184,1774805.0,8364008.0,1710964998144.0,-416.0,0.25505825877189636,64.0,0.039239730685949326,-15728.0,9.643163681030273,2695.0,3925.025634765625,2250.0,1648.3516845703125,34561.0,614.5880126953125,1.6271061897277832
75115.5119776,0.16622279731683665,0.6367856947380142,-0.020232942389580177,109.22820153274839,202.51016854860387,421.8960281070764,nan,nan,nan,-249.6007566483173,310.9435017238486,91.01237630905027,nan,nan,nan,0.7176579163621314,-0.21686666635048948,0.6617673035960523,nan,44.96596675278403,nan,3.1288636680041533,1775061.0,8364015.5,1710964998144.0,-448.0,0.274678111076355,48.0,0.02942979708313942,-15808.0,9.69221305847168,2681.0,3904.635986328125,2442.0,1789.010986328125,34560.0,615.1419677734375,1.6256409883499146
75115.612849,0.6,0.5557238075913175,0.18475610927427477,53.33010963521045,129.2527352673721,524.1128788023241,162.50807161880132,221.2668861713838,44.932778369800545,nan,nan,nan,-0.21835592396718168,-0.18402830180802338,0.958360200865047,nan,nan,nan,37.999711066342684,nan,3.058966547413498,nan,1775317.0,8364023.5,1710964998144.0,-464.0,0.2844880521297455,64.0,0.039239730685949326,-15792.0,9.682403564453125,2698.0,3929.394775390625,2331.0,1707.6922607421875,34560.0,615.1419677734375,1.6256409883499146
75115.7138554,0.4422171038816178,0.5619246675535623,0.18455009914717913,58.949715890678846,129.82588906625617,525.4681163079252,162.50807161880132,221.2668861713838,44.932778369800545,nan,nan,nan,-0.20711671145624488,-0.18288199421025522,0.9610706758762493,nan,nan,nan,35.105682804553076,nan,2.8231077506717446,nan,1775573.0,8364031.0,1710964998144.0,-416.0,0.25505825877189636,32.0,0.019619865342974663,-15808.0,9.69221305847168,2667.0,3884.24609375,2458.0,1800.7325439453125,34560.0,615.1419677734375,1.6256409883499146
75115.8149009,0.18090871878049197,0.6156780033754068,0.023239951463506214,92.76817437560663,183.21384870925277,432.2874132078932,nan,nan,nan,-249.6007566483173,310.9435017238486,91.01237630905027,nan,nan,nan,0.6847378620478477,-0.2554593060291917,0.6825500737976858,nan,48.87209061370154,nan,3.3930076939518354,1775829.0,8364039.0,1710964998144.0,-416.0,0.25505825877189636,64.0,0.039239730685949326,-15792.0,9.682403564453125,2697.0,3927.9384765625,2337.0,1712.087890625,34560.0,615.1419677734375,1.6256409883499146
75115.9158962,0.19248460925647104,0.656108638315604,0.037710579794281274,115.74931339691824,165.55269106129848,399.85026014590744,nan,nan,nan,-249.6007566483173,310.9435017238486,91.01237630905027,nan,nan,nan,0.730700140090471,-0.2907816213251003,0.6176757676737141,nan,45.835492599007466,nan,3.224602833623231,1776085.0,8364047.0,1710964998144.0,-448.0,0.274678111076355,48.0,0.02942979708313942,-15856.0,9.721643447875977,2693.0,3922.11279296875,2274.0,1665.93408203125,34560.0,615.1419677734375,1.6256409883499146
75116.0172512,0.16433044222018836,0.5936820960198342,-0.07335610568341755,83.53512146278482,247.4390045940291,458.41905229552947,nan,nan,nan,-249.6007566483173,310.9435017238486,91.01237630905027,nan,nan,nan,0.6662717562222041,-0.1270089942596391,0.7348133519729583,nan,48.027091586556985,nan,3.2899176737904385,1776341.0,8364054.5,1710964998144.0,-432.0,0.2648681700229645,32.0,0.019619865342974663,-15808.0,9.69221305847168,2699.0,3930.851318359375,2258.0,1654.21240234375,34560.0,615.1419677734375,1.6256409883499146
75116.117748,0.8133875267634523,0.5487362209958537,0.1467203499707973,47.80371687821429,149.693474021471,526.3059783682677,162.50807161880132,221.2668861713838,44.932778369800545,nan,nan,nan,-0.22940870948117398,-0.14314682429982561,0.9627463999969343,nan,nan,nan,23.297372682665927,nan,1.8523328156770162,nan,1776597.0,8364062.5,1710964998144.0,-464.0,0.2844880521297455,32.0,0.019619865342974663,-15808.0,9.69221305847168,2699.0,3930.851318359375,2253.0,1650.5494384765625,34560.0,615.1419677734375,1.6256409883499146
75116.2197061,0.3921092827586011,0.4574740268615023,0.035346625364375495,-32.40458060634242,203.09663775890806,505.0185313280823,162.50807161880132,221.2668861713838,44.932778369800545,nan,nan,nan,-0.3898253044502875,-0.03634049682495144,0.9201715059165635,nan,nan,nan,37.09661287530349,nan,2.9893613065934383,nan,1776853.0,8364070.5,1710964998144.0,-448.0,0.274678111076355,64.0,0.039239730685949326,-15744.0,9.652973175048828,2698.0,3929.394775390625,2242.0,1642.4908447265625,34560.0,615.1419677734375,1.6256409883499146
75116.3209002,0.32446324921785524,0.5227639268914365,0.1761886256727877,24.21666462673585,131.38474543222054,516.9462183567358,162.50807161880132,221.2668861713838,44.932778369800545,nan,nan,nan,-0.2765828139841309,-0.17976428147832643,0.9440268799738706,nan,nan,nan,37.046357582469255,nan,2.9889285431835173,nan,1777109.0,8364078.0,1710964998144.0,-448.0,0.274678111076355,0.0,0.0,-15760.0,9.6627836227417,2687.0,3913.374267578125,2452.0,1796.3370361328125,34560.0,615.1419677734375,1.6256409883499146
75116.4211889,0.2952288024972328,0.6440110121499787,0.15811456223926545,138.26761942143995,151.04367420100536,539.3830801978313,162.50807161880132,221.2668861713838,44.932778369800545,nan,nan,nan,-0.04848090439472271,-0.1404464239407569,0.9889006036560616,nan,nan,nan,37.28997845941546,nan,2.9815335122521276,nan,1777365.0,8364086.0,1710964998144.0,-400.0,0.24524831771850586,32.0,0.019619865342974663,-15792.0,9.682403564453125,2697.0,3927.9384765625,2335.0,1710.6226806640625,34560.0,615.1419677734375,1.6256409883499146
75116.5226044,0.26225285522047226,0.6142260339581089,0.10650882535751882,111.29413469630039,178.8596355880626,540.4918139678425,162.50807161880132,221.2668861713838,44.932778369800545,nan,nan,nan,-0.10242787384500186,-0.08481450116664241,0.9911180711960841,nan,nan,nan,37.82815218595468,nan,3.015294915496503,nan,1777621.0,8364094.0,1710964998144.0,-432.0,0.2648681700229645,32.0,0.019619865342974663,-15808.0,9.69221305847168,2696.0,3926.48193359375,2276.0,1667.3992919921875,34560.0,615.1419677734375,1.6256409883499146
75116.6238852,0.22615315054198393,0.6048296527624716,0.07564664546025568,103.3020335512495,196.4408429180853,540.7939611949224,162.50807161880132,221.2668861713838,44.932778369800545,nan,nan,nan,-0.1184120761351036,-0.0496520865065969,0.9917223656502437,nan,nan,nan,40.22473902227675,nan,3.20216535756226,nan,1777877.0,8364101.5,1710964998144.0,-464.0,0.2844880521297455,0.0,0.0,-15824.0,9.70202350616455,2700.0,3932.3076171875,2255.0,1652.0146484375,34560.0,615.1419677734375,1.6256409883499146
75116.7247954,0.24320330995443606,0.4823530670027175,0.02473267922605693,-10.872391145445732,212.4205599045737,513.8261112753097,162.50807161880132,221.2668861713838,44.932778369800545,nan,nan,nan,-0.3467609255284941,-0.017692652533620165,0.9377866658110184,nan,nan,nan,36.470807771440356,nan,2.926639852921732,nan,1778133.0,8364109.5,1710964998144.0,-416.0,0.25505825877189636,48.0,0.02942979708313942,-15792.0,9.682403564453125,2691.0,3919.199951171875,2232.0,1635.164794921875,34560.0,615.1419677734375,1.6256409883499146
75116.8259139,0.24868537243110722,0.5212166675066122,0.035007526506367403,24.218673072665297,211.2588902167065,525.3241628332598,162.50807161880132,221.2668861713838,44.932778369800545,nan,nan,nan,-0.27657879709227207,-0.020015991909354592,0.9607827689269185,nan,nan,nan,38.42286855449421,nan,3.071094691803278,nan,1778389.0,8364117.0,1710964998144.0,-352.0,0.21581850945949554,16.0,0.009809932671487331,-15856.0,9.721643447875977,2689.0,3916.287109375,2214.0,1621.97802734375,34560.0,615.1419677734375,1.6256409883499146
75116.9269701,0.2402796644409284,0.5294028613704368,0.05575887579449268,31.546712073455808,199.95767956647504,527.0064657039094,162.50807161880132,221.2668861713838,44.932778369800545,nan,nan,nan,-0.2619227190906909,-0.042618413209817456,0.9641473746682176,nan,nan,nan,39.8046938114219,nan,3.1829516566604514,nan,1778645.0,8364125.0,1710964998144.0,-352.0,0.21581850945949554,32.0,0.019619865342974663,-15776.0,9.672593116760254,2670.0,3888.615478515625,2402.0,1759.7069091796875,34560.0,615.1419677734375,1.6256409883499146
75117.027423,0.25844701397574593,0.5386849859106808,0.08737036127353692,39.660717869957296,182.51421152018486,528.054665562137,162.50807161880132,221.2668861713838,44.932778369800545,nan,nan,nan,-0.245694707497688,-0.07750534930239783,0.9662437743846729,nan,nan,nan,37.87970567991427,nan,3.0312016341460746,nan,1778901.0,8364133.0,1710964998144.0,-368.0,0.22562845051288605,32.0,0.019619865342974663,-15760.0,9.6627836227417,2687.0,3913.374267578125,2528.0,1852.0146484375,34560.0,615.1419677734375,1.6256409883499146
75117.1281865,0.27033174252528375,0.5708651206819153,-0.024106389121953953,72.92998374624246,254.10437700150132,535.7458439753099,162.50807161880132,221.2668861713838,44.932778369800545,nan,nan,nan,-0.1791561757451177,0.06567498166023507,0.9816261312110187,nan,nan,nan,39.028498753540376,nan,3.0985378248161757,nan,1779157.0,8364140.5,1710964998144.0,-432.0,0.2648681700229645,32.0,0.019619865342974663,-15808.0,9.69221305847168,2693.0,3922.11279296875,2361.0,1729.6702880859375,34560.0,615.1419677734375,1.6256409883499146
75117.229023,0.3074149908083112,0.49047594773300673,-0.03635520000270853,-3.744201617283494,250.12525959814184,515.5997263563742,162.50807161880132,221.2668861713838,44.932778369800545,nan,nan,nan,-0.3325045464721696,0.057716746853516125,0.9413338959731471,nan,nan,nan,38.76698571331232,nan,3.101075376718117,nan,1779413.0,8364148.5,1710964998144.0,-432.0,0.2648681700229645,16.0,0.009809932671487331,-15776.0,9.672593116760254,2687.0,3913.374267578125,2510.0,1838.827880859375,34560.0,615.1419677734375,1.6256409883499146
75117.3306714,0.3794913167136609,0.5645277102892784,0.2075072405290317,60.72401762319217,117.54204907619555,523.3480420495829,162.50807161880132,221.2668861713838,44.932778369800545,nan,nan,nan,-0.20356810799121827,-0.20744967419037647,0.9568305273595645,nan,nan,nan,35.85869185196158,nan,2.889391157915602,nan,1779669.0,8364156.0,1710964998144.0,-384.0,0.23543837666511536,64.0,0.039239730685949326,-15808.0,9.69221305847168,2697.0,3927.9384765625,2362.0,1730.4029541015625,34559.0,615.6968994140625,1.624175786972046
75117.4311104,0.488789956077908,0.5582766560971829,0.2080715104606129,55.088912554970506,116.81851366019293,521.956532228854,162.50807161880132,221.2668861713838,44.932778369800545,nan,nan,nan,-0.2148383181276616,-0.20889674502238173,0.954047507718107,nan,nan,nan,36.07396255014192,nan,2.908446898075267,nan,1779925.0,8364164.0,1710964998144.0,-416.0,0.25505825877189636,32.0,0.019619865342974663,-15792.0,9.682403564453125,2696.0,3926.48193359375,2289.0,1676.923095703125,34560.0,615.1419677734375,1.6256409883499146
75117.5419286,0.2491024576731586,0.6788055956972945,-0.05367962467156184,136.65755026326988,209.55278408949968,391.8851778704176,nan,nan,nan,-249.6007566483173,310.9435017238486,91.01237630905027,nan,nan,nan,0.7725166138231743,-0.20278143526869788,0.6017456031227345,nan,45.76169808122912,nan,3.2173768898481034,1780181.0,8364172.0,1710964998144.0,-448.0,0.274678111076355,16.0,0.009809932671487331,-15824.0,9.70202350616455,2682.0,3906.09228515625,2459.0,1801.4652099609375,34560.0,615.1419677734375,1.6256409883499146
75117.6420783,0.2753567438155746,0.6920549728158127,-0.02043367499689741,140.30225554323397,187.4071916974743,378.6135258008814,nan,nan,nan,-249.6007566483173,310.9435017238486,91.01237630905027,nan,nan,nan,0.7798060243831024,-0.2470726200527487,0.5752022989836623,nan,47.74698621115375,nan,3.3808007157257887,1780437.0,8364179.5,1710964998144.0,-448.0,0.274678111076355,0.0,0.0,-15824.0,9.70202350616455,2697.0,3927.9384765625,2340.0,1714.2857666015625,34560.0,615.1419677734375,1.6256409883499146
75117.7425634,0.3133218488915146,0.5529343838524163,0.20710035596283427,42.205946122478224,98.08334160351896,436.75708046456475,nan,nan,nan,-249.6007566483173,310.9435017238486,91.01237630905027,nan,nan,nan,0.5836134055415911,-0.4257203202406593,0.6914894083110289,nan,47.18674899051002,nan,3.289683628896051,1780693.0,8364187.5,1710964998144.0,-448.0,0.274678111076355,48.0,0.02942979708313942,-15744.0,9.652973175048828,2698.0,3929.394775390625,2283.0,1672.5274658203125,34559.0,615.6968994140625,1.624175786972046
75117.8428028,0.35889004990891454,0.5529322142981052,0.20707591874769427,42.20533684544347,98.09551726319305,436.7650904140115,nan,nan,nan,-249.6007566483173,310.9435017238486,91.01237630905027,nan,nan,nan,0.5836121869875216,-0.4256959689213111,0.6915054282099226,nan,47.40283593538455,nan,3.3048125888821187,1780949.0,8364195.5,1710964998144.0,-416.0,0.25505825877189636,48.0,0.02942979708313942,-15744.0,9.652973175048828,2696.0,3926.48193359375,2251.0,1649.084228515625,34560.0,615.1419677734375,1.6256409883499146
75117.9439483,0.41954474204485465,0.5529297987736247,0.20703490181208584,42.20513170965171,98.1157953096255,436.7777460355136,nan,nan,nan,-249.6007566483173,310.9435017238486,91.01237630905027,nan,nan,nan,0.583611776715938,-0.4256554128284462,0.6915307394529265,nan,47.79047348187086,nan,3.331958979667155,1781205.0,8364203.0,1710964998144.0,-464.0,0.2844880521297455,32.0,0.019619865342974663,-15744.0,9.652973175048828,2679.0,3901.72314453125,2440.0,1787.5457763671875,34559.0,615.6968994140625,1.624175786972046
75118.0443622,0.49404987437568726,0.5568248849865439,0.1950801077447819,45.22433407005025,103.44789746791747,437.4568020072745,nan,nan,nan,-249.6007566483173,310.9435017238486,91.01237630905027,nan,nan,nan,0.589650181436735,-0.41499120851186233,0.6928888513964485,nan,47.008652337327604,nan,3.274465021763935,1781461.0,8364211.0,1710964998144.0,-416.0,0.25505825877189636,16.0,0.009809932671487331,-15744.0,9.652973175048828,2696.0,3926.48193359375,2324.0,1702.5640869140625,34559.0,615.6968994140625,1.624175786972046
75118.1448153,0.7012980095728214,0.5286198806675166,0.21671118014011503,28.841167524599967,110.26747779536757,513.7742122150249,162.50807161880132,221.2668861713838,44.932778369800545,nan,nan,nan,-0.2673338081884027,-0.22199881675203237,0.9376828676904488,nan,nan,nan,38.30796438642104,nan,3.078240146041562,nan,1781717.0,8364219.0,1710964998144.0,-448.0,0.274678111076355,32.0,0.019619865342974663,-15808.0,9.69221305847168,2669.0,3887.158935546875,2454.0,1797.80224609375,34560.0,615.1419677734375,1.6256409883499146
75118.2451751,0.5512563891987856,0.5596875618183479,0.21924690836543792,56.085089088157105,110.9371894595244,520.8545227908254,162.50807161880132,221.2668861713838,44.932778369800545,nan,nan,nan,-0.21284596506128836,-0.22065939342371874,0.9518434888420497,nan,nan,nan,38.63624568826036,nan,3.119321863203543,nan,1781973.0,8364226.5,1710964998144.0,-448.0,0.274678111076355,32.0,0.019619865342974663,-15808.0,9.69221305847168,2698.0,3929.394775390625,2338.0,1712.820556640625,34560.0,615.1419677734375,1.6256409883499146
75118.3458509,0.7120452270476071,0.5785503636866018,0.1553709179192162,39.31207698044685,77.13243078236714,278.30159518902235,19.811783471170695,15.428428087773163,-20.953438230828773,-41.0006028508056,14.58802227722682,-20.981273359669824,0.06402441773925814,0.1755199407377309,0.9823917875962586,0.25361195755696586,0.22372371068663427,0.9410784644548652,38.823064391618786,48.554034985918236,3.132801628996877,3.378317398650137,1782229.0,8364234.5,1710964998144.0,-464.0,0.2844880521297455,32.0,0.019619865342974663,-15776.0,9.672593116760254,2682.0,3906.09228515625,2484.0,1819.7802734375,34559.0,615.6968994140625,1.624175786972046
75118.4466687,0.8451361848433657,0.5487325216585954,0.13243710442783851,18.21102528825087,59.73376488576109,199.7850138740704,19.811783471170695,15.428428087773163,-20.953438230828773,-41.0006028508056,14.58802227722682,-20.981273359669824,-0.0066940796336493755,0.1666484486275346,0.9859936530565977,0.25361195755696586,0.22372371068663427,0.9410784644548652,38.931446963470314,48.554034985918236,3.1338515857923204,3.378317398650137,1782485.0,8364242.0,1710964998144.0,-448.0,0.274678111076355,64.0,0.039239730685949326,-15808.0,9.69221305847168,2695.0,3925.025634765625,2349.0,1720.879150390625,34560.0,615.1419677734375,1.6256409883499146
75118.5468354,0.8155234918562619,0.5486236669388193,0.13388972360978257,18.14969912868713,59.37786486253233,199.59165461264433,19.811783471170695,15.428428087773163,-20.953438230828773,-41.0006028508056,14.58802227722682,-20.981273359669824,-0.006956464819290792,0.16397100083158714,0.986440630997885,0.25361195755696586,0.22372371068663427,0.9410784644548652,39.2265655192232,48.554034985918236,3.1558796524659787,3.378317398650137,1782741.0,8364250.0,1710964998144.0,-400.0,0.24524831771850586,64.0,0.039239730685949326,-15792.0,9.682403564453125,2699.0,3930.851318359375,2296.0,1682.05126953125,34559.0,615.6968994140625,1.624175786972046
75118.6479043,0.7621961832046509,0.54880769029048,0.1342365251448686,18.15606352085255,59.131885514308834,198.99725595994573,19.811783471170695,15.428428087773163,-20.953438230828773,-41.0006028508056,14.58802227722682,-20.981273359669824,-0.006956464819290792,0.16397100083158714,0.986440630997885,0.25431788360159413,0.2226293691193327,0.9411474794557619,39.2265655192232,48.88394495065587,3.1558796524659787,3.4020957915812335,1782997.0,8364258.0,1710964998144.0,-384.0,0.23543837666511536,16.0,0.009809932671487331,-15728.0,9.643163681030273,2698.0,3929.394775390625,2262.0,1657.142822265625,34560.0,615.1419677734375,1.6256409883499146
75118.748085,0.8216463625431061,0.5491261027268919,0.1363006222646489,18.170362167900578,58.44620281431028,198.08889319977817,19.811783471170695,15.428428087773163,-20.953438230828773,-41.0006028508056,14.58802227722682,-20.981273359669824,-0.006956464819290792,0.16397100083158714,0.986440630997885,0.2555157597773433,0.21833339815420133,0.9418291903290352,39.2265655192232,49.1037619076679,3.1558796524659787,3.4172509662818467,1783253.0,8364265.5,1710964998144.0,-368.0,0.22562845051288605,0.0,0.0,-15808.0,9.69221305847168,2681.0,3904.635986328125,2448.0,1793.4066162109375,34559.0,615.6968994140625,1.624175786972046
75118.8488391,0.8235443830490112,0.5487449220220213,0.14039055169519699,17.962176297438887,57.41951592880599,197.41340310622218,19.811783471170695,15.428428087773163,-20.953438230828773,-41.0006028508056,14.58802227722682,-20.981273359669824,-0.0078680788148655,0.1563275035274071,0.9876739365684667,0.2555157597773433,0.21833339815420133,0.9418291903290352,39.34679032403522,49.1037619076679,3.1643649445069753,3.4172509662818467,1783509.0,8364273.5,1710964998144.0,-400.0,0.24524831771850586,32.0,0.019619865342974663,-15792.0,9.682403564453125,2697.0,3927.9384765625,2332.0,1708.4249267578125,34559.0,615.6968994140625,1.624175786972046
75118.9502151,0.800481379032135,0.5486237001293783,0.14061174342516503,17.900610340992408,57.309744585830344,197.1921915929506,19.811783471170695,15.428428087773163,-20.953438230828773,-41.0006028508056,14.58802227722682,-20.981273359669824,-0.008150036286611097,0.15575367050166317,0.9877623049265377,0.2555157597773433,0.21833339815420133,0.9418291903290352,39.22799371643612,49.1037619076679,3.1549022715897364,3.4172509662818467,1783765.0,8364281.0,1710964998144.0,-464.0,0.2844880521297455,32.0,0.019619865342974663,-15712.0,9.633354187011719,2670.0,3888.615478515625,2460.0,1802.19775390625,34560.0,615.1419677734375,1.6256409883499146
75119.0507821,0.8382189273834229,0.5490493932786193,0.140665382683565,17.914982644940288,56.89785687757441,195.8000276825129,19.811783471170695,15.428428087773163,-20.953438230828773,-41.0006028508056,14.58802227722682,-20.981273359669824,-0.008150036286611097,0.15575367050166317,0.9877623049265377,0.25715259440858323,0.2170402756532278,0.941682569623812,39.22799371643612,49.03257425780897,3.1549022715897364,3.4117207327058168,1784021.0,8364289.0,1710964998144.0,-400.0,0.24524831771850586,32.0,0.019619865342974663,-15744.0,9.652973175048828,2699.0,3930.851318359375,2346.0,1718.6812744140625,34560.0,615.1419677734375,1.6256409883499146
75119.1515128,0.8945210874080658,0.5478053604797086,0.14250321991756354,17.29694985688322,55.88200781553179,193.58448530181064,19.811783471170695,15.428428087773163,-20.953438230828773,-41.0006028508056,14.58802227722682,-20.981273359669824,-0.011036658314318189,0.15061427981563613,0.9885309964229094,0.25715259440858323,0.2170402756532278,0.941682569623812,39.42009378139966,49.03257425780897,3.1696405738195708,3.4117207327058168,1784277.0,8364297.0,1710964998144.0,-496.0,0.3041079044342041,48.0,0.02942979708313942,-15744.0,9.652973175048828,2682.0,3906.09228515625,2489.0,1823.4432373046875,34559.0,615.6968994140625,1.624175786972046
75119.2522671,0.9044217169284821,0.5483301878880236,0.14405503612367354,17.322215215414303,55.13606115542274,192.03620490541928,19.811783471170695,15.428428087773163,-20.953438230828773,-41.0006028508056,14.58802227722682,-20.981273359669824,-0.011036658314318189,0.15061427981563613,0.9885309964229094,0.2591440421713245,0.2130219648448783,0.9420541427650188,39.42009378139966,49.209942173280126,3.1696405738195708,3.424147403618928,1784533.0,8364304.5,1710964998144.0,-432.0,0.2648681700229645,64.0,0.039239730685949326,-15760.0,9.6627836227417,2698.0,3929.394775390625,2353.0,1723.8095703125,34559.0,615.6968994140625,1.624175786972046
75119.3528768,0.9229447841644287,0.5485938734651042,0.14498817555070886,17.33506992045301,54.73922636245891,191.27861561656835,19.811783471170695,15.428428087773163,-20.953438230828773,-41.0006028508056,14.58802227722682,-20.981273359669824,-0.011036658314318189,0.15061427981563613,0.9885309964229094,0.2601396582671886,0.2107539215410127,0.9422898400978943,39.42009378139966,49.48228097140457,3.1696405738195708,3.4424910874254433,1784789.0,8364312.5,1710964998144.0,-464.0,0.2844880521297455,16.0,0.009809932671487331,-15824.0,9.70202350616455,2695.0,3925.025634765625,2289.0,1676.923095703125,34559.0,615.6968994140625,1.624175786972046
75119.453873,0.9499604105949402,0.5488657267676278,0.1468413320973846,17.45859191741266,54.517929192430366,191.75835602761404,19.811783471170695,15.428428087773163,-20.953438230828773,-41.0006028508056,14.58802227722682,-20.981273359669824,-0.0104239490317486,0.1478688670414305,0.9889520410244712,0.2601396582671886,0.2107539215410127,0.9422898400978943,39.3196547958354,49.48228097140457,3.161214975203854,3.4424910874254433,1785045.0,8364320.5,1710964998144.0,-400.0,0.24524831771850586,32.0,0.019619865342974663,-15904.0,9.751072883605957,2697.0,3927.9384765625,2258.0,1654.21240234375,34560.0,615.1419677734375,1.6256409883499146
75119.5548491,0.9656310677528381,0.5498517239708617,0.14861723761942736,17.50047533266486,53.35795774488982,188.84776922160987,19.811783471170695,15.428428087773163,-20.953438230828773,-41.0006028508056,14.58802227722682,-20.981273359669824,-0.0104239490317486,0.1478688670414305,0.9889520410244712,0.26387208166509163,0.2050886279873007,0.9425020844475718,39.3196547958354,49.49159613899887,3.161214975203854,3.44295688191261,1785301.0,8364328.0,1710964998144.0,-400.0,0.24524831771850586,-16.0,-0.009809932671487331,-15856.0,9.721643447875977,2688.0,3914.830810546875,2220.0,1626.3736572265625,34559.0,615.6968994140625,1.624175786972046
75119.6559426,0.9635415971279144,0.5502601864432,0.14784821160617723,17.698400768073604,53.703391246934096,189.5364047007389,19.811783471170695,15.428428087773163,-20.953438230828773,-41.0006028508056,14.58802227722682,-20.981273359669824,-0.009475384936732318,0.14983115819955184,0.9886661929654931,0.26387208166509163,0.2050886279873007,0.9425020844475718,39.33295745558289,49.49159613899887,3.1624150457567044,3.44295688191261,1785557.0,8364336.0,1710964998144.0,-416.0,0.25505825877189636,16.0,0.009809932671487331,-15856.0,9.721643447875977,2698.0,3929.394775390625,2227.0,1631.5018310546875,34559.0,615.6968994140625,1.624175786972046
75119.7562381,0.9635415971279144,0.55069718677746,0.14732157033786364,17.712585716565247,53.42170914602894,188.17568156756312,19.811783471170695,15.428428087773163,-20.953438230828773,-41.0006028508056,14.58802227722682,-20.981273359669824,-0.009475384936732318,0.14983115819955184,0.9886661929654931,0.26553927872228295,0.2047244428988207,0.9421129411781888,39.33295745558289,49.2699677426551,3.1624150457567044,3.427140046705501,1785813.0,8364344.0,1710964998144.0,-464.0,0.2844880521297455,-16.0,-0.009809932671487331,-15888.0,9.741263389587402,2696.0,3926.48193359375,2224.0,1629.3040771484375,34559.0,615.6968994140625,1.624175786972046
75119.8569315,0.9363731145858765,0.5512489280052101,0.1474640365222497,17.975993927580014,53.66317914759184,189.10724483781866,19.811783471170695,15.428428087773163,-20.953438230828773,-41.0006028508056,14.58802227722682,-20.981273359669824,-0.00820222006145768,0.1504626704649953,0.9885816650042655,0.26553927872228295,0.2047244428988207,0.9421129411781888,39.51075068253415,49.2699677426551,3.1773339272572017,3.427140046705501,1786069.0,8364351.5,1710964998144.0,-400.0,0.24524831771850586,48.0,0.02942979708313942,-15840.0,9.711833000183105,2697.0,3927.9384765625,2228.0,1632.234375,34560.0,615.1419677734375,1.6256409883499146
75119.9581657,0.9310597479343414,0.5549485118049893,0.15080809098350678,19.802462190520977,54.87751593929472,195.61312884860905,19.811783471170695,15.428428087773163,-20.953438230828773,-41.0006028508056,14.58802227722682,-20.981273359669824,0.0003493296210886783,0.15062012109021275,0.988591653359255,0.26553927872228295,0.2047244428988207,0.9421129411781888,39.478074242864004,49.2699677426551,3.17580094161039,3.427140046705501,1786325.0,8364359.5,1710964998144.0,-416.0,0.25505825877189636,16.0,0.009809932671487331,-15808.0,9.69221305847168,2681.0,3904.635986328125,2430.0,1780.2197265625,34560.0,615.1419677734375,1.6256409883499146
75120.0588932,0.8957967758178711,0.5554143901625745,0.15035773676745523,19.803288132312467,54.54228061698586,194.08846727822504,19.811783471170695,15.428428087773163,-20.953438230828773,-41.0006028508056,14.58802227722682,-20.981273359669824,0.0003493296210886783,0.15062012109021275,0.988591653359255,0.26730931765559196,0.20416345804869576,0.9417340447770274,39.478074242864004,49.415003777873,3.17580094161039,3.4379799174457575,1786581.0,8364367.0,1710964998144.0,-400.0,0.24524831771850586,32.0,0.019619865342974663,-15856.0,9.721643447875977,2699.0,3930.851318359375,2333.0,1709.157470703125,34559.0,615.6968994140625,1.624175786972046
75120.159909,0.9089395105838776,0.5556329263795239,0.14848823558795288,19.923542945078545,55.020564327256494,194.47249125450674,19.811783471170695,15.428428087773163,-20.953438230828773,-41.0006028508056,14.58802227722682,-20.981273359669824,0.0008743304843288571,0.15417137707602144,0.9880437348805402,0.26730931765559196,0.20416345804869576,0.9417340447770274,39.53106079342388,49.415003777873,3.1801212184071055,3.4379799174457575,1786837.0,8364375.0,1710964998144.0,-432.0,0.2648681700229645,48.0,0.02942979708313942,-15808.0,9.69221305847168,2697.0,3927.9384765625,2279.0,1669.5970458984375,34559.0,615.6968994140625,1.624175786972046
75120.2609267,0.9442024827003479,0.5556699667599636,0.14832629510002304,19.92322179064111,55.01606262998836,194.34261067924209,19.811783471170695,15.428428087773163,-20.953438230828773,-41.0006028508056,14.58802227722682,-20.981273359669824,0.0008743304843288571,0.15417137707602144,0.9880437348805402,0.2674519200480923,0.20432515063094953,0.9416584854830486,39.53106079342388,49.57127760647005,3.1801212184071055,3.448531781611427,1787093.0,8364383.0,1710964998144.0,-368.0,0.22562845051288605,64.0,0.039239730685949326,-15760.0,9.6627836227417,2695.0,3925.025634765625,2254.0,1651.2821044921875,34559.0,615.6968994140625,1.624175786972046
75120.3610893,0.9755131304264069,0.5702802212581947,0.1318205099927965,28.715519684280473,67.52241250257933,224.53165205899106,19.811783471170695,15.428428087773163,-20.953438230828773,-41.0006028508056,14.58802227722682,-20.981273359669824,0.035474570293759715,0.20621501127389186,0.9778634485385892,0.2674519200480923,0.20432515063094953,0.9416584854830486,39.49379364378727,49.57127760647005,3.187618284622964,3.448531781611427,1787349.0,8364390.5,1710964998144.0,-384.0,0.23543837666511536,48.0,0.02942979708313942,-15824.0,9.70202350616455,2687.0,3913.374267578125,2455.0,1798.5347900390625,34559.0,615.6968994140625,1.624175786972046
75120.4619078,0.9606899917125702,0.5696023673952416,0.13406852063661234,28.82907451714871,67.9153899734107,227.62067698426156,19.811783471170695,15.428428087773163,-20.953438230828773,-41.0006028508056,14.58802227722682,-20.981273359669824,0.035474570293759715,0.20621501127389186,0.9778634485385892,0.2648319312790993,0.20250065123417657,0.9427924132197484,39.49379364378727,49.55187340783043,3.187618284622964,3.4475988275730294,1787605.0,8364398.5,1710964998144.0,-384.0,0.23543837666511536,16.0,0.009809932671487331,-15808.0,9.69221305847168,2698.0,3929.394775390625,2340.0,1714.2857666015625,34559.0,615.6968994140625,1.624175786972046
75120.5629044,0.9559872448444366,0.5693875200049563,0.13426527720782977,28.67752972098815,67.70986405713336,227.09547926218133,19.811783471170695,15.428428087773163,-20.953438230828773,-41.0006028508056,14.58802227722682,-20.981273359669824,0.03496024579072101,0.2055238421754138,0.9780274697122305,0.2648319312790993,0.20250065123417657,0.9427924132197484,39.57078993668275,49.55187340783043,3.193873249789626,3.4475988275730294,1787861.0,8364406.0,1710964998144.0,-400.0,0.24524831771850586,32.0,0.019619865342974663,-15808.0,9.69221305847168,2697.0,3927.9384765625,2282.0,1671.794921875,34559.0,615.6968994140625,1.624175786972046
75120.6639042,0.9708103835582733,0.5693199046177088,0.13139015946461352,28.673884893760487,68.38338351448635,227.103000381273,19.811783471170695,15.428428087773163,-20.953438230828773,-41.0006028508056,14.58802227722682,-20.981273359669824,0.03496024579072101,0.2055238421754138,0.9780274697122305,0.26463820973586394,0.20748200930299182,0.9417631516275151,39.57078993668275,49.5070051339119,3.193873249789626,3.4451943019782654,1788117.0,8364414.0,1710964998144.0,-336.0,0.20600858330726624,16.0,0.009809932671487331,-15840.0,9.711833000183105,2696.0,3926.48193359375,2251.0,1649.084228515625,34560.0,615.1419677734375,1.6256409883499146
75120.764841,0.9539171755313873,0.5693452253726339,0.12729777854958357,28.650546240273947,69.18736444708054,226.5927163753265,19.811783471170695,15.428428087773163,-20.953438230828773,-41.0006028508056,14.58802227722682,-20.981273359669824,0.03496024579072101,0.2055238421754138,0.9780274697122305,0.2648210377736318,0.21422600942715303,0.9402005290561232,39.57078993668275,49.5818885243779,3.193873249789626,3.451221879885723,1788373.0,8364422.0,1710964998144.0,-368.0,0.22562845051288605,32.0,0.019619865342974663,-15824.0,9.70202350616455,2689.0,3916.287109375,2221.0,1627.106201171875,34559.0,615.6968994140625,1.624175786972046
75120.8658583,0.925704687833786,0.570132798336086,0.12690977478492615,29.20752243361305,69.88190939226993,228.53122230093,19.811783471170695,15.428428087773163,-20.953438230828773,-41.0006028508056,14.58802227722682,-20.981273359669824,0.03684570731536212,0.20749575754915134,0.9775417660906026,0.2648210377736318,0.21422600942715303,0.9402005290561232,39.8889367617625,49.5818885243779,3.2201964595444466,3.451221879885723,1788629.0,8364429.5,1710964998144.0,-400.0,0.24524831771850586,48.0,0.02942979708313942,-15792.0,9.682403564453125,2698.0,3929.394775390625,2230.0,1633.6995849609375,34559.0,615.6968994140625,1.624175786972046
75120.9662891,0.9196029901504517,0.5706476674110011,0.12527455690820188,29.58507954658641,70.6643543592748,229.79395504664734,19.811783471170695,15.428428087773163,-20.953438230828773,-41.0006028508056,14.58802227722682,-20.981273359669824,0.03808835049590352,0.211170819551927,0.9767067945531395,0.2648210377736318,0.21422600942715303,0.9402005290561232,39.843149528924634,49.5818885243779,3.2167767151499085,3.451221879885723,1788885.0,8364437.5,1710964998144.0,-448.0,0.274678111076355,80.0,0.04904966428875923,-15680.0,9.613734245300293,2671.0,3890.07177734375,2414.0,1768.4981689453125,34560.0,615.1419677734375,1.6256409883499146
75121.0667771,0.9222490787506104,0.5711153827377263,0.12175361333140822,29.48923993420123,70.7688602497706,227.41033410319758,19.811783471170695,15.428428087773163,-20.953438230828773,-41.0006028508056,14.58802227722682,-20.981273359669824,0.03808835049590352,0.211170819551927,0.9767067945531395,0.26667337077017333,0.21876183707653193,0.9386312225581325,39.843149528924634,49.742654838110774,3.2167767151499085,3.463260694057274,1789141.0,8364445.5,1710964998144.0,-368.0,0.22562845051288605,80.0,0.04904966428875923,-15776.0,9.672593116760254,2698.0,3929.394775390625,2320.0,1699.6336669921875,34559.0,615.6968994140625,1.624175786972046
75121.1670002,0.9310367405414581,0.5712103429359724,0.12132156368899216,29.559476071245737,70.94336281986517,227.63818590477888,19.811783471170695,15.428428087773163,-20.953438230828773,-41.0006028508056,14.58802227722682,-20.981273359669824,0.038318719810710576,0.21207511027012502,0.9765018296531669,0.26667337077017333,0.21876183707653193,0.9386312225581325,39.8629281315991,49.742654838110774,3.2187682799749924,3.463260694057274,1789397.0,8364453.0,1710964998144.0,-416.0,0.25505825877189636,48.0,0.02942979708313942,-15760.0,9.6627836227417,2687.0,3913.374267578125,2488.0,1822.7105712890625,34559.0,615.6968994140625,1.624175786972046
75121.268056,0.9104627370834351,0.571656341613181,0.11875447101572978,29.4729247483025,70.87908253770658,225.47825743793737,19.811783471170695,15.428428087773163,-20.953438230828773,-41.0006028508056,14.58802227722682,-20.981273359669824,0.038318719810710576,0.21207511027012502,0.9765018296531669,0.26841920715510237,0.22176475481698138,0.937428142713451,39.8629281315991,49.836640827888296,3.2187682799749924,3.4700774574112145,1789653.0,8364461.0,1710964998144.0,-432.0,0.2648681700229645,80.0,0.04904966428875923,-15760.0,9.6627836227417,2698.0,3929.394775390625,2354.0,1724.5421142578125,34559.0,615.6968994140625,1.624175786972046
75121.3688612,0.912376344203949,0.5717054387392857,0.11688982844397233,29.45573294723937,71.19354778793925,225.08408408316114,19.811783471170695,15.428428087773163,-20.953438230828773,-41.0006028508056,14.58802227722682,-20.981273359669824,0.038318719810710576,0.21207511027012502,0.9765018296531669,0.2686438716363594,0.22472974976129098,0.9366573598731047,39.8629281315991,49.84566508097729,3.2187682799749924,3.470991839856472,1789909.0,8364469.0,1710964998144.0,-384.0,0.23543837666511536,48.0,0.02942979708313942,-15760.0,9.6627836227417,2697.0,3927.9384765625,2290.0,1677.6556396484375,34559.0,615.6968994140625,1.624175786972046
75121.4696655,0.9255958199501038,0.5717071308728021,0.11573262314221844,29.464005816356917,71.4608373792718,225.06929077909737,19.811783471170695,15.428428087773163,-20.953438230828773,-41.0006028508056,14.58802227722682,-20.981273359669824,0.03833149967891063,0.21407933180177616,0.9760638994592877,0.2686438716363594,0.22472974976129098,0.9366573598731047,39.81977390684112,49.84566508097729,3.215100718261205,3.470991839856472,1790165.0,8364476.5,1710964998144.0,-400.0,0.24524831771850586,32.0,0.019619865342974663,-15824.0,9.70202350616455,2698.0,3929.394775390625,2261.0,1656.4102783203125,34559.0,615.6968994140625,1.624175786972046
75121.5705292,0.9585033357143402,0.5710101793616695,0.11593717540414095,29.580685489300997,72.35319939189796,228.06580545812963,19.811783471170695,15.428428087773163,-20.953438230828773,-41.0006028508056,14.58802227722682,-20.981273359669824,0.03833149967891063,0.21407933180177616,0.9760638994592877,0.26599277726861126,0.22638712840932132,0.9370147867197788,39.81977390684112,49.911353958118276,3.215100718261205,3.4753267101029266,1790421.0,8364484.5,1710964998144.0,-384.0,0.23543837666511536,48.0,0.02942979708313942,-15808.0,9.69221305847168,2686.0,3911.91796875,2455.0,1798.5347900390625,34559.0,615.6968994140625,1.624175786972046
75121.6713209,0.9217548072338104,0.5708914635970735,0.11575588196915321,29.49694897708283,72.30002209593812,227.7677572453108,19.811783471170695,15.428428087773163,-20.953438230828773,-41.0006028508056,14.58802227722682,-20.981273359669824,0.038048488184780585,0.21419482081199717,0.9760496356662243,0.26599277726861126,0.22638712840932132,0.9370147867197788,40.0380469245749,49.911353958118276,3.232719735328889,3.4753267101029266,1790677.0,8364492.0,1710964998144.0,-416.0,0.25505825877189636,64.0,0.039239730685949326,-15792.0,9.682403564453125,2696.0,3926.48193359375,2330.0,1706.959716796875,34559.0,615.6968994140625,1.624175786972046
75121.7734062,0.9027003645896912,0.5711404083313484,0.11297917442216587,29.44206973996281,72.53205612095047,226.41614508132534,19.811783471170695,15.428428087773163,-20.953438230828773,-41.0006028508056,14.58802227722682,-20.981273359669824,0.038048488184780585,0.21419482081199717,0.9760496356662243,0.26699544225914573,0.23029998987745698,0.9357752660095726,40.0380469245749,49.728650004952335,3.232719735328889,3.4622179080415685,1790933.0,8364500.0,1710964998144.0,-464.0,0.2844880521297455,32.0,0.019619865342974663,-15824.0,9.70202350616455,2696.0,3926.48193359375,2273.0,1665.201416015625,34559.0,615.6968994140625,1.624175786972046
75121.87521,0.9361305832862854,0.5700415975083538,0.11098352119074262,28.683574035893628,72.11898202600446,223.71658646743194,19.811783471170695,15.428428087773163,-20.953438230828773,-41.0006028508056,14.58802227722682,-20.981273359669824,0.03543445785481911,0.21581103222511705,0.9757919847828556,0.26699544225914573,0.23029998987745698,0.9357752660095726,40.04290283002631,49.728650004952335,3.23301544493565,3.4622179080415685,1791189.0,8364508.0,1710964998144.0,-384.0,0.23543837666511536,48.0,0.02942979708313942,-15760.0,9.6627836227417,2687.0,3913.374267578125,2466.0,1806.5933837890625,34559.0,615.6968994140625,1.624175786972046
75121.9760163,0.938613772392273,0.568877987761834,0.10889581473474341,27.899382247422444,71.6867246966145,220.92606541453847,19.811783471170695,15.428428087773163,-20.953438230828773,-41.0006028508056,14.58802227722682,-20.981273359669824,0.0326710768675053,0.21747726742219098,0.9755184462073972,0.26699544225914573,0.23029998987745698,0.9357752660095726,40.12128927157817,49.728650004952335,3.239116694452348,3.4622179080415685,1791445.0,8364515.5,1710964998144.0,-416.0,0.25505825877189636,48.0,0.02942979708313942,-15744.0,9.652973175048828,2679.0,3901.72314453125,2543.0,1863.003662109375,34559.0,615.6968994140625,1.624175786972046
75122.0769017,0.9420591592788696,0.5683154681606915,0.11056397587920541,27.98345409368273,72.09465805130583,223.41316857512675,19.811783471170695,15.428428087773163,-20.953438230828773,-41.0006028508056,14.58802227722682,-20.981273359669824,0.0326710768675053,0.21747726742219098,0.9755184462073972,0.26481921002988784,0.22914491876756082,0.9366767810734683,40.12128927157817,49.96256930970161,3.239116694452348,3.4785002681618526,1791701.0,8364523.5,1710964998144.0,-384.0,0.23543837666511536,32.0,0.019619865342974663,-15760.0,9.6627836227417,2697.0,3927.9384765625,2379.0,1742.857177734375,34559.0,615.6968994140625,1.624175786972046
75122.1775316,0.9576682150363922,0.5679773495647815,0.11140877849846664,28.034117023308042,72.37611245869122,224.91736357934212,19.811783471170695,15.428428087773163,-20.953438230828773,-41.0006028508056,14.58802227722682,-20.981273359669824,0.0326710768675053,0.21747726742219098,0.9755184462073972,0.26351154414169864,0.22871278595233566,0.937151069809974,40.12128927157817,50.11866907430031,3.239116694452348,3.488804137484844,1791957.0,8364531.0,1710964998144.0,-368.0,0.22562845051288605,64.0,0.039239730685949326,-15744.0,9.652973175048828,2670.0,3888.615478515625,2482.0,1818.3150634765625,34559.0,615.6968994140625,1.624175786972046
75122.2798801,0.923984557390213,0.567075837125517,0.11122429698197445,27.420773084846317,71.71185054330495,222.7584062383149,19.811783471170695,15.428428087773163,-20.953438230828773,-41.0006028508056,14.58802227722682,-20.981273359669824,0.030523425412388044,0.21629403818633383,0.9758510181099076,0.26351154414169864,0.22871278595233566,0.937151069809974,40.117998329766536,50.11866907430031,3.239021827220024,3.488804137484844,1792213.0,8364539.0,1710964998144.0,-400.0,0.24524831771850586,48.0,0.02942979708313942,-15776.0,9.672593116760254,2696.0,3926.48193359375,2343.0,1716.4835205078125,34559.0,615.6968994140625,1.624175786972046
75122.3808146,0.9379338920116425,0.566201865114867,0.11018532910381917,26.842206396749575,71.27417144112027,220.68963760933883,19.811783471170695,15.428428087773163,-20.953438230828773,-41.0006028508056,14.58802227722682,-20.981273359669824,0.02845035162078458,0.21663571373706939,0.9758378682067449,0.26351154414169864,0.22871278595233566,0.937151069809974,40.017160046953435,50.11866907430031,3.2305807853206203,3.488804137484844,1792469.0,8364547.0,1710964998144.0,-400.0,0.24524831771850586,16.0,0.009809932671487331,-15776.0,9.672593116760254,2680.0,3903.179443359375,2481.0,1817.5823974609375,34559.0,615.6968994140625,1.624175786972046
75122.4819697,0.9379338920116425,0.5654731882492179,0.11239553150310821,26.93773807678,71.78994237547457,223.92223429247946,19.811783471170695,15.428428087773163,-20.953438230828773,-41.0006028508056,14.58802227722682,-20.981273359669824,0.02845035162078458,0.21663571373706939,0.9758378682067449,0.26067823179289495,0.22713682695298093,0.9383260208003726,40.017160046953435,49.863363945590805,3.2305807853206203,3.47063713638747,1792725.0,8364554.5,1710964998144.0,-432.0,0.2648681700229645,80.0,0.04904966428875923,-15760.0,9.6627836227417,2687.0,3913.374267578125,2564.0,1878.3883056640625,34559.0,615.6968994140625,1.624175786972046
75122.5840589,0.9225037395954132,0.5651785821765183,0.11427617449413852,26.981431723503253,71.8017149183994,225.35309498236035,19.811783471170695,15.428428087773163,-20.953438230828773,-41.0006028508056,14.58802227722682,-20.981273359669824,0.02845035162078458,0.21663571373706939,0.9758378682067449,0.2595098254990434,0.22485242389315807,0.9391996794818596,40.017160046953435,50.25841262792827,3.2305807853206203,3.4976093929743923,1792981.0,8364562.5,1710964998144.0,-480.0,0.2942979633808136,48.0,0.02942979708313942,-15728.0,9.643163681030273,2690.0,3917.74365234375,2373.0,1738.4615478515625,34559.0,615.6968994140625,1.624175786972046
75122.6887757,0.9143939912319183,0.5639868082428843,0.11248868133509027,26.1953718972727,71.28606762054098,222.47994337020486,19.811783471170695,15.428428087773163,-20.953438230828773,-41.0006028508056,14.58802227722682,-20.981273359669824,0.025629919886826533,0.2177504533352499,0.9756678980467114,0.2595098254990434,0.22485242389315807,0.9391996794818596,40.05222973512327,50.25841262792827,3.23339153216741,3.4976093929743923,1793237.0,8364570.5,1710964998144.0,-448.0,0.274678111076355,48.0,0.02942979708313942,-15776.0,9.672593116760254,2687.0,3913.374267578125,2513.0,1841.025634765625,34559.0,615.6968994140625,1.624175786972046
75122.7898048,0.9297734498977661,0.5645191815049353,0.11237761921109424,26.13896345816699,70.61472287002358,220.28310626145202,19.811783471170695,15.428428087773163,-20.953438230828773,-41.0006028508056,14.58802227722682,-20.981273359669824,0.025629919886826533,0.2177504533352499,0.9756678980467114,0.26155284363578907,0.22349713183202655,0.9389564111549003,40.05222973512327,50.330050378793736,3.23339153216741,3.5022104135431786,1793493.0,8364578.0,1710964998144.0,-512.0,0.3139178454875946,48.0,0.02942979708313942,-15744.0,9.652973175048828,2679.0,3901.72314453125,2566.0,1879.853515625,34559.0,615.6968994140625,1.624175786972046
75122.8909121,0.9512038826942444,0.5642695747891261,0.11176440746305771,25.979676685234097,70.56435324515418,219.69653793414653,19.811783471170695,15.428428087773163,-20.953438230828773,-41.0006028508056,14.58802227722682,-20.981273359669824,0.02504134944815916,0.21839540847376077,0.9755390183767098,0.26155284363578907,0.22349713183202655,0.9389564111549003,39.982333440688734,50.330050378793736,3.2279400751048932,3.5022104135431786,1793749.0,8364586.0,1710964998144.0,-464.0,0.2844880521297455,64.0,0.039239730685949326,-15776.0,9.672593116760254,2697.0,3927.9384765625,2389.0,1750.18310546875,34559.0,615.6968994140625,1.624175786972046
75122.9919034,0.939789205789566,0.564199574547944,0.11174451142166963,25.934384502836835,70.51629902377911,219.53554629436573,19.811783471170695,15.428428087773163,-20.953438230828773,-41.0006028508056,14.58802227722682,-20.981273359669824,0.024875440268458816,0.21831386298680305,0.9755615150769478,0.26155284363578907,0.22349713183202655,0.9389564111549003,40.2033497775617,50.330050378793736,3.245575451977706,3.5022104135431786,1794005.0,8364594.0,1710964998144.0,-480.0,0.2942979633808136,80.0,0.04904966428875923,-15808.0,9.69221305847168,2696.0,3926.48193359375,2302.0,1686.4468994140625,34559.0,615.6968994140625,1.624175786972046
75123.0928752,0.9034681022167206,0.5638397465595844,0.11329979779528443,25.9771069931232,70.67087722635452,221.15113897338256,19.811783471170695,15.428428087773163,-20.953438230828773,-41.0006028508056,14.58802227722682,-20.981273359669824,0.024875440268458816,0.21831386298680305,0.9755615150769478,0.26014139236585293,0.22194662289229342,0.9397159956947958,40.2033497775617,50.202500209352586,3.245575451977706,3.49240445077481,1794261.0,8364601.5,1710964998144.0,-432.0,0.2648681700229645,48.0,0.02942979708313942,-15728.0,9.643163681030273,2696.0,3926.48193359375,2259.0,1654.945068359375,34559.0,615.6968994140625,1.624175786972046
75123.1938837,0.9068721830844879,0.5633509828558548,0.1128758684970933,25.66191491363798,70.39837992911114,220.01315421215844,19.811783471170695,15.428428087773163,-20.953438230828773,-41.0006028508056,14.58802227722682,-20.981273359669824,0.02371918868399765,0.21823762627595228,0.9756073690607358,0.26014139236585293,0.22194662289229342,0.9397159956947958,40.06666718623541,50.202500209352586,3.2346164391484655,3.49240445077481,1794517.0,8364609.5,1710964998144.0,-352.0,0.21581850945949554,16.0,0.009809932671487331,-15760.0,9.6627836227417,2679.0,3901.72314453125,2444.0,1790.4761962890625,34559.0,615.6968994140625,1.624175786972046
75123.2948807,0.9391672015190125,0.5625112315759828,0.11518347719709265,25.753103762806973,71.02900749743107,223.70238567006172,19.811783471170695,15.428428087773163,-20.953438230828773,-41.0006028508056,14.58802227722682,-20.981273359669824,0.02371918868399765,0.21823762627595228,0.9756073690607358,0.2568659450967781,0.22052997919727155,0.94094974070074,40.06666718623541,50.08501963607796,3.2346164391484655,3.483656966489014,1794773.0,8364617.0,1710964998144.0,-432.0,0.2648681700229645,16.0,0.009809932671487331,-15856.0,9.721643447875977,2695.0,3925.025634765625,2331.0,1707.6922607421875,34559.0,615.6968994140625,1.624175786972046
75123.3959196,0.9423289597034454,0.5622262332733605,0.11568122923391688,25.7835235379155,71.30557073961307,224.95262871732103,19.811783471170695,15.428428087773163,-20.953438230828773,-41.0006028508056,14.58802227722682,-20.981273359669824,0.02371918868399765,0.21823762627595228,0.9756073690607358,0.25575731850415984,0.2205245859798957,0.9412529420989648,40.06666718623541,49.89850880323249,3.2346164391484655,3.470378993735088,1795029.0,8364625.0,1710964998144.0,-368.0,0.22562845051288605,48.0,0.02942979708313942,-15824.0,9.70202350616455,2695.0,3925.025634765625,2276.0,1667.3992919921875,34558.0,616.2528076171875,1.6227105855941772
75123.4969162,0.950264185667038,0.5617028632661174,0.11523578914314436,25.442168456660813,71.00493349234941,223.6974141469551,19.811783471170695,15.428428087773163,-20.953438230828773,-41.0006028508056,14.58802227722682,-20.981273359669824,0.02248195410359771,0.2181446513744337,0.9756574567010753,0.25575731850415984,0.2205245859798957,0.9412529420989648,40.006186436971056,49.89850880323249,3.2295657832290994,3.470378993735088,1795285.0,8364633.0,1710964998144.0,-400.0,0.24524831771850586,32.0,0.019619865342974663,-15824.0,9.70202350616455,2694.0,3923.5693359375,2246.0,1645.4212646484375,34559.0,615.6968994140625,1.624175786972046
75123.5977912,0.9875927865505219,0.5612202875705188,0.11533702174191773,25.12835352485826,70.61523057137748,222.56274179240415,19.811783471170695,15.428428087773163,-20.953438230828773,-41.0006028508056,14.58802227722682,-20.981273359669824,0.02133960651949025,0.21717617077554238,0.9758991403013253,0.25575731850415984,0.2205245859798957,0.9412529420989648,39.97930527453693,49.89850880323249,3.227779756205514,3.470378993735088,1795541.0,8364640.5,1710964998144.0,-384.0,0.23543837666511536,48.0,0.02942979708313942,-15712.0,9.633354187011719,2683.0,3907.548828125,2444.0,1790.4761962890625,34559.0,615.6968994140625,1.624175786972046
75123.6994099,0.9885078072547913,0.5610082826271043,0.11642713551352035,25.151364519902963,70.6730208171794,223.5535671871342,19.811783471170695,15.428428087773163,-20.953438230828773,-41.0006028508056,14.58802227722682,-20.981273359669824,0.02133960651949025,0.21717617077554238,0.9758991403013253,0.2549166173248809,0.21932038575951435,0.9417622240257558,39.97930527453693,50.189951444053584,3.227779756205514,3.4903260551283317,1795797.0,8364648.5,1710964998144.0,-352.0,0.21581850945949554,64.0,0.039239730685949326,-15760.0,9.6627836227417,2695.0,3925.025634765625,2332.0,1708.4249267578125,34558.0,616.2528076171875,1.6227105855941772
75123.8008029,0.9861681163311005,0.5610245225550882,0.11736652122430591,25.15742904349557,70.47258092287495,223.61064166898024,19.811783471170695,15.428428087773163,-20.953438230828773,-41.0006028508056,14.58802227722682,-20.981273359669824,0.02137348033669258,0.21558265244595554,0.9762516552112286,0.2549166173248809,0.21932038575951435,0.9417622240257558,40.11263135308435,50.189951444053584,3.2388221048472006,3.4903260551283317,1796053.0,8364656.0,1710964998144.0,-432.0,0.2648681700229645,16.0,0.009809932671487331,-15760.0,9.6627836227417,2696.0,3926.48193359375,2272.0,1664.4688720703125,34559.0,615.6968994140625,1.624175786972046
75123.901926,0.9777471721172333,0.5608874335536133,0.12000714645479083,25.180177392635407,70.11759685800885,224.44450129760796,19.811783471170695,15.428428087773163,-20.953438230828773,-41.0006028508056,14.58802227722682,-20.981273359669824,0.02137348033669258,0.21558265244595554,0.9762516552112286,0.25433217928050883,0.21531162230302164,0.9428446573448185,40.11263135308435,50.24974085881824,3.2388221048472006,3.4942415156613915,1796309.0,8364664.0,1710964998144.0,-432.0,0.2648681700229645,80.0,0.04904966428875923,-15776.0,9.672593116760254,2693.0,3922.11279296875,2243.0,1643.223388671875,34559.0,615.6968994140625,1.624175786972046
75124.003214,0.9482008814811707,0.5604573252334522,0.11980864964705773,24.902475751609007,69.83905379870656,223.4222937758708,19.811783471170695,15.428428087773163,-20.953438230828773,-41.0006028508056,14.58802227722682,-20.981273359669824,0.020357572637803478,0.2152204201967179,0.9763532864525242,0.25433217928050883,0.21531162230302164,0.9428446573448185,40.028979177449735,50.24974085881824,3.2320988476545653,3.4942415156613915,1796565.0,8364672.0,1710964998144.0,-384.0,0.23543837666511536,80.0,0.04904966428875923,-15696.0,9.623543739318848,2678.0,3900.2666015625,2430.0,1780.2197265625,34559.0,615.6968994140625,1.624175786972046
75124.1038463,0.9414079487323761,0.5605033550579447,0.11974591266357892,24.898366097426546,69.79213474462507,223.2238792285092,19.811783471170695,15.428428087773163,-20.953438230828773,-41.0006028508056,14.58802227722682,-20.981273359669824,0.020357572637803478,0.2152204201967179,0.9763532864525242,0.2545111950048898,0.21528322725895135,0.9428028339362126,40.028979177449735,50.259783155319184,3.2320988476545653,3.494159307938545,1796821.0,8364679.5,1710964998144.0,-416.0,0.25505825877189636,32.0,0.019619865342974663,-15776.0,9.672593116760254,2697.0,3927.9384765625,2326.0,1704.029296875,34558.0,616.2528076171875,1.6227105855941772
75124.2048219,0.9659507274627686,0.559815073655425,0.11784796005188203,24.466788386759227,69.7063166802902,221.57810803850685,19.811783471170695,15.428428087773163,-20.953438230828773,-41.0006028508056,14.58802227722682,-20.981273359669824,0.018740417385350937,0.21736273197798242,0.9759109792923177,0.2545111950048898,0.21528322725895135,0.9428028339362126,39.88695562488736,50.259783155319184,3.2203029766952755,3.494159307938545,1797077.0,8364687.5,1710964998144.0,-448.0,0.274678111076355,0.0,0.0,-15856.0,9.721643447875977,2695.0,3925.025634765625,2274.0,1665.93408203125,34558.0,616.2528076171875,1.6227105855941772
75124.3068852,0.9633089005947113,0.5594043988843443,0.11922627339032332,24.503491671101592,69.9596536038475,223.41651718762375,19.811783471170695,15.428428087773163,-20.953438230828773,-41.0006028508056,14.58802227722682,-20.981273359669824,0.018740417385350937,0.21736273197798242,0.9759109792923177,0.252894688186818,0.21417292846132216,0.943490452204575,39.88695562488736,50.318772825545814,3.2203029766952755,3.497853445011682,1797333.0,8364695.5,1710964998144.0,-416.0,0.25505825877189636,32.0,0.019619865342974663,-15856.0,9.721643447875977,2696.0,3926.48193359375,2247.0,1646.15380859375,34559.0,615.6968994140625,1.624175786972046
75124.4079166,0.9731427133083344,0.5593860087953966,0.11891271515018231,24.503697766975304,70.04682182430841,223.4631404878552,19.811783471170695,15.428428087773163,-20.953438230828773,-41.0006028508056,14.58802227722682,-20.981273359669824,0.018740417385350937,0.21736273197798242,0.9759109792923177,0.2528302410979544,0.21474951425991656,0.9433766561196435,39.88695562488736,50.1682114223275,3.2203029766952755,3.4865843201549978,1797589.0,8364703.0,1710964998144.0,-416.0,0.25505825877189636,48.0,0.02942979708313942,-15840.0,9.711833000183105,2677.0,3898.810302734375,2431.0,1780.952392578125,34559.0,615.6968994140625,1.624175786972046
75124.5083825,0.9198056757450104,0.5594408495204057,0.11913268054002257,24.53784352695386,70.03831102566083,223.5968919378775,19.811783471170695,15.428428087773163,-20.953438230828773,-41.0006028508056,14.58802227722682,-20.981273359669824,0.018868955395467565,0.2170735481664094,0.9759728670453547,0.2528302410979544,0.21474951425991656,0.9433766561196435,39.87539186149976,50.1682114223275,3.2194016780963413,3.4865843201549978,1797845.0,8364711.0,1710964998144.0,-448.0,0.274678111076355,48.0,0.02942979708313942,-15856.0,9.721643447875977,2696.0,3926.48193359375,2320.0,1699.6336669921875,34558.0,616.2528076171875,1.6227105855941772
75124.6089201,0.9765905737876892,0.5591818271300084,0.11983033292156797,24.36915296170017,69.68742718249699,223.00235766392228,19.811783471170695,15.428428087773163,-20.953438230828773,-41.0006028508056,14.58802227722682,-20.981273359669824,0.018254746635094216,0.2154486674296707,0.9763445272689696,0.2528302410979544,0.21474951425991656,0.9433766561196435,40.140705000777,50.1682114223275,3.2408514574987874,3.4865843201549978,1798101.0,8364719.0,1710964998144.0,-448.0,0.274678111076355,16.0,0.009809932671487331,-15776.0,9.672593116760254,2697.0,3927.9384765625,2274.0,1665.93408203125,34558.0,616.2528076171875,1.6227105855941772
75124.7096206,0.9814891815185547,0.5583409627105166,0.12133803407459143,24.438748843224626,70.48232846038223,226.71303732837498,19.811783471170695,15.428428087773163,-20.953438230828773,-41.0006028508056,14.58802227722682,-20.981273359669824,0.018254746635094216,0.2154486674296707,0.9763445272689696,0.24953864643981657,0.21466733754110554,0.9442713583107333,40.140705000777,50.269763374577764,3.2408514574987874,3.492955934742886,1798357.0,8364726.5,1710964998144.0,-448.0,0.274678111076355,32.0,0.019619865342974663,-15760.0,9.6627836227417,2696.0,3926.48193359375,2246.0,1645.4212646484375,34559.0,615.6968994140625,1.624175786972046
75124.8106177,0.9789342880249023,0.5570272053213008,0.12019383118723637,23.604707021397225,69.75180948557906,223.55904222668204,19.814918496083344,15.431830186069568,-20.95155380036963,-41.0006028508056,14.58802227722682,-20.981273359669824,0.015150576914765367,0.2152674730956428,0.9764375940356693,0.24953864643981657,0.21466733754110554,0.9442713583107333,40.224771719161375,50.269763374577764,3.2470785838192993,3.492955934742886,1798613.0,8364734.5,1710964998144.0,-384.0,0.23543837666511536,48.0,0.02942979708313942,-15776.0,9.672593116760254,2679.0,3901.72314453125,2438.0,1786.08056640625,34559.0,615.6968994140625,1.624175786972046
75124.9118644,0.9678228795528412,0.5562717559014584,0.12203048745545464,23.658668143445297,70.37043330558922,226.95452756316627,19.814918496083344,15.431830186069568,-20.95155380036963,-41.0006028508056,14.58802227722682,-20.981273359669824,0.015150576914765367,0.2152674730956428,0.9764375940356693,0.24655963194988706,0.2137919140901564,0.9452520115622095,40.224771719161375,50.62167392199754,3.2470785838192993,3.5167438849713157,1798869.0,8364742.0,1710964998144.0,-352.0,0.21581850945949554,48.0,0.02942979708313942,-15824.0,9.70202350616455,2696.0,3926.48193359375,2323.0,1701.83154296875,34559.0,615.6968994140625,1.624175786972046
75125.013921,0.9731244146823883,0.5545379839647901,0.1207499033692565,22.576569055750245,69.36397552826844,222.81726357396948,19.814918496083344,15.431830186069568,-20.95155380036963,-41.0006028508056,14.58802227722682,-20.981273359669824,0.011079363069745978,0.214657404296445,0.9766265645038953,0.24655963194988706,0.2137919140901564,0.9452520115622095,40.35557440461973,50.62167392199754,3.257908811783257,3.5167438849713157,1799125.0,8364750.0,1710964998144.0,-400.0,0.24524831771850586,80.0,0.04904966428875923,-15712.0,9.633354187011719,2695.0,3925.025634765625,2274.0,1665.93408203125,34559.0,615.6968994140625,1.624175786972046
75125.1148441,0.9856604933738708,0.5540656420374502,0.12179414393594945,22.600905173265886,69.76648992806463,224.90847309387743,19.814918496083344,15.431830186069568,-20.95155380036963,-41.0006028508056,14.58802227722682,-20.981273359669824,0.011079363069745978,0.214657404296445,0.9766265645038953,0.24469324432122758,0.21342153162943084,0.9458205252691971,40.35557440461973,50.48683756349922,3.257908811783257,3.5069045744789102,1799381.0,8364758.0,1710964998144.0,-352.0,0.21581850945949554,32.0,0.019619865342974663,-15744.0,9.652973175048828,2696.0,3926.48193359375,2245.0,1644.6885986328125,34559.0,615.6968994140625,1.624175786972046
75125.2158579,0.9595022797584534,0.5536955189792548,0.12357058479403282,22.623655067740156,69.89104526578787,226.66606747204548,19.814918496083344,15.431830186069568,-20.95155380036963,-41.0006028508056,14.58802227722682,-20.981273359669824,0.011079363069745978,0.214657404296445,0.9766265645038953,0.24320824067787547,0.21152978078007173,0.9466281759537414,40.35557440461973,50.6612374537821,3.257908811783257,3.518146208124083,1799637.0,8364765.5,1710964998144.0,-416.0,0.25505825877189636,48.0,0.02942979708313942,-15792.0,9.682403564453125,2678.0,3900.2666015625,2433.0,1782.4176025390625,34558.0,616.2528076171875,1.6227105855941772
75125.3169492,0.9422083795070648,0.5525824526216637,0.1224984981032523,21.93964275640365,69.30610731565338,224.00208001761544,19.814918496083344,15.431830186069568,-20.95155380036963,-41.0006028508056,14.58802227722682,-20.981273359669824,0.008472472411943394,0.2147032404809464,0.9766425834143266,0.24320824067787547,0.21152978078007173,0.9466281759537414,40.17444397700542,50.6612374537821,3.2432013989359403,3.518146208124083,1799893.0,8364773.5,1710964998144.0,-368.0,0.22562845051288605,128.0,0.07847946137189865,-15792.0,9.682403564453125,2679.0,3901.72314453125,2525.0,1849.81689453125,34559.0,615.6968994140625,1.624175786972046
75125.4178941,0.9595578610897064,0.5512786304264347,0.11991266110927168,21.163457563411065,68.93392973701116,220.9308555568191,19.814918496083344,15.431830186069568,-20.95155380036963,-41.0006028508056,14.58802227722682,-20.981273359669824,0.0054286843780487655,0.21704513543066498,0.9761464739329891,0.24320824067787547,0.21152978078007173,0.9466281759537414,40.039854425273084,50.6612374537821,3.231769631084748,3.518146208124083,1800149.0,8364781.0,1710964998144.0,-352.0,0.21581850945949554,64.0,0.039239730685949326,-15744.0,9.652973175048828,2694.0,3923.5693359375,2364.0,1731.8681640625,34558.0,616.2528076171875,1.6227105855941772
75125.518092,0.9823075532913208,0.5518261983254674,0.11928278221890376,21.151391663255424,68.36701952058559,218.63830123012326,19.814918496083344,15.431830186069568,-20.95155380036963,-41.0006028508056,14.58802227722682,-20.981273359669824,0.0054286843780487655,0.21704513543066498,0.9761464739329891,0.24536455514908478,0.21098336274251622,0.946193561446257,40.039854425273084,50.576696979471045,3.231769631084748,3.5110782046236637,1800405.0,8364789.0,1710964998144.0,-384.0,0.23543837666511536,16.0,0.009809932671487331,-15776.0,9.672593116760254,2696.0,3926.48193359375,2288.0,1676.1904296875,34559.0,615.6968994140625,1.624175786972046
75125.6188454,0.9733746647834778,0.5493543835331323,0.11668376515087164,19.741290904735738,67.21425157801241,213.19053944057327,19.814918496083344,15.431830186069568,-20.95155380036963,-41.0006028508056,14.58802227722682,-20.981273359669824,-0.00032878115140057295,0.2175193738740044,0.9760559481363841,0.24536455514908478,0.21098336274251622,0.946193561446257,40.49301498006862,50.576696979471045,3.2684851008950515,3.5110782046236637,1800661.0,8364797.0,1710964998144.0,-384.0,0.23543837666511536,32.0,0.019619865342974663,-15744.0,9.652973175048828,2683.0,3907.548828125,2467.0,1807.3260498046875,34559.0,615.6968994140625,1.624175786972046
75125.7197634,0.97848179936409,0.5491762640584437,0.11676888911517602,19.74047876615515,67.41330685470453,213.88739579799238,19.814918496083344,15.431830186069568,-20.95155380036963,-41.0006028508056,14.58802227722682,-20.981273359669824,-0.00032878115140057295,0.2175193738740044,0.9760559481363841,0.2446658988713696,0.2113629325525516,0.9462897593613968,40.49301498006862,50.42664689177196,3.2684851008950515,3.5002900010643487,1800917.0,8364804.5,1710964998144.0,-384.0,0.23543837666511536,64.0,0.039239730685949326,-15776.0,9.672593116760254,2696.0,3926.48193359375,2335.0,1710.6226806640625,34559.0,615.6968994140625,1.624175786972046
75125.8205908,0.9561400711536407,0.548241490914142,0.11581421275519699,19.223618558395444,66.98362860276562,211.8855170619451,19.814918496083344,15.431830186069568,-20.95155380036963,-41.0006028508056,14.58802227722682,-20.981273359669824,-0.0024998726298213095,0.21765198464111996,0.9760232395894148,0.2446658988713696,0.2113629325525516,0.9462897593613968,40.244974079959,50.42664689177196,3.2486502557363695,3.5002900010643487,1801173.0,8364812.5,1710964998144.0,-384.0,0.23543837666511536,16.0,0.009809932671487331,-15808.0,9.69221305847168,2698.0,3929.394775390625,2283.0,1672.5274658203125,34559.0,615.6968994140625,1.624175786972046
75125.9210043,0.9561400711536407,0.5479597678347046,0.1152978187557897,19.218127361302777,67.42234578636513,212.92015394265286,19.814918496083344,15.431830186069568,-20.95155380036963,-41.0006028508056,14.58802227722682,-20.981273359669824,-0.0024998726298213095,0.21765198464111996,0.9760232395894148,0.2435726709555865,0.2130498435293428,0.9461934887409045,40.244974079959,50.413603577370026,3.2486502557363695,3.4988752240248253,1801429.0,8364820.5,1710964998144.0,-416.0,0.25505825877189636,48.0,0.02942979708313942,-15792.0,9.682403564453125,2693.0,3922.11279296875,2247.0,1646.15380859375,34559.0,615.6968994140625,1.624175786972046
75126.0215689,0.9349510967731476,0.5470816229170694,0.11719688048693944,19.2102114247586,68.12999843273903,216.53063830679588,19.814918496083344,15.431830186069568,-20.95155380036963,-41.0006028508056,14.58802227722682,-20.981273359669824,-0.0024998726298213095,0.21765198464111996,0.9760232395894148,0.24008251040698766,0.21246026266497683,0.9472175172498699,40.244974079959,50.499493097487886,3.2486502557363695,3.5041340389029214,1801685.0,8364828.0,1710964998144.0,-432.0,0.2648681700229645,64.0,0.039239730685949326,-15744.0,9.652973175048828,2680.0,3903.179443359375,2434.0,1783.150146484375,34559.0,615.6968994140625,1.624175786972046
75126.1218473,0.9517837762832642,0.5457137571682741,0.11531853179979012,18.45781710050594,67.59326151209223,213.54055111707692,19.814918496083344,15.431830186069568,-20.95155380036963,-41.0006028508056,14.58802227722682,-20.981273359669824,-0.005670518375510642,0.21867976508146825,0.9757802035116653,0.24008251040698766,0.21246026266497683,0.9472175172498699,40.265138266255406,50.499493097487886,3.250275251306031,3.5041340389029214,1801941.0,8364836.0,1710964998144.0,-384.0,0.23543837666511536,-16.0,-0.009809932671487331,-15744.0,9.652973175048828,2695.0,3925.025634765625,2325.0,1703.2967529296875,34559.0,615.6968994140625,1.624175786972046
75126.2232918,0.9729727506637573,0.5456548999707397,0.11537348619357257,18.456332177926825,67.65448246735865,213.77423522717527,19.814918496083344,15.431830186069568,-20.95155380036963,-41.0006028508056,14.58802227722682,-20.981273359669824,-0.005670518375510642,0.21867976508146825,0.9757802035116653,0.23984942131458636,0.2125418267392615,0.9472582683626445,40.265138266255406,50.73303424431636,3.250275251306031,3.519995527572549,1802197.0,8364844.0,1710964998144.0,-384.0,0.23543837666511536,32.0,0.019619865342974663,-15760.0,9.6627836227417,2670.0,3888.615478515625,2456.0,1799.2674560546875,34559.0,615.6968994140625,1.624175786972046
75126.3235828,0.9591946005821228,0.5448313996309991,0.11450079414636782,18.01193575241438,67.28284571490914,212.0154145000402,19.814918496083344,15.431830186069568,-20.95155380036963,-41.0006028508056,14.58802227722682,-20.981273359669824,-0.007576313516541499,0.21885588253475585,0.9757277807633808,0.23984942131458636,0.2125418267392615,0.9472582683626445,40.32625745249203,50.73303424431636,3.254894653614155,3.519995527572549,1802453.0,8364851.5,1710964998144.0,-384.0,0.23543837666511536,16.0,0.009809932671487331,-15760.0,9.6627836227417,2695.0,3925.025634765625,2336.0,1711.3553466796875,34559.0,615.6968994140625,1.624175786972046
75126.4241693,0.9508841037750244,0.5440181798508781,0.11500334622460628,17.984383051146395,68.18135205086506,215.22408373578418,19.814918496083344,15.431830186069568,-20.95155380036963,-41.0006028508056,14.58802227722682,-20.981273359669824,-0.007576313516541499,0.21885588253475585,0.9757277807633808,0.2366260138199595,0.2141013981711883,0.9477176377407031,40.32625745249203,50.30653179901913,3.254894653614155,3.4894602142943705,1802709.0,8364859.5,1710964998144.0,-384.0,0.23543837666511536,32.0,0.019619865342974663,-15776.0,9.672593116760254,2678.0,3900.2666015625,2475.0,1813.186767578125,34559.0,615.6968994140625,1.624175786972046
75126.5246278,0.9565256536006927,0.5415191938759684,0.11290838787020963,16.660137510537353,66.93974978868212,209.92755803834768,19.814918496083344,15.431830186069568,-20.95155380036963,-41.0006028508056,14.58802227722682,-20.981273359669824,-0.013345197426676704,0.21845106545407675,0.975756648815483,0.2366260138199595,0.2141013981711883,0.9477176377407031,40.451021758384506,50.30653179901913,3.2649045463873874,3.4894602142943705,1802965.0,8364867.0,1710964998144.0,-416.0,0.25505825877189636,48.0,0.02942979708313942,-15728.0,9.643163681030273,2695.0,3925.025634765625,2346.0,1718.6812744140625,34559.0,615.6968994140625,1.624175786972046
75126.6249195,0.9602376222610474,0.5411619270426141,0.11258613320360666,16.638852228091412,67.43140701840616,211.2564734817772,19.814918496083344,15.431830186069568,-20.95155380036963,-41.0006028508056,14.58802227722682,-20.981273359669824,-0.013345197426676704,0.21845106545407675,0.975756648815483,0.23521513969783034,0.21569665644844335,0.9477071227198265,40.451021758384506,50.61107816539845,3.2649045463873874,3.509580551154713,1803221.0,8364875.0,1710964998144.0,-448.0,0.274678111076355,48.0,0.02942979708313942,-15744.0,9.652973175048828,2696.0,3926.48193359375,2279.0,1669.5970458984375,34559.0,615.6968994140625,1.624175786972046
75126.7253862,0.9492241144180298,0.5394624759015564,0.11135072130219237,15.769444120874482,66.57041035495902,207.76412792703877,19.814918496083344,15.431830186069568,-20.95155380036963,-41.0006028508056,14.58802227722682,-20.981273359669824,-0.017254676473005038,0.21785568557469925,0.9758284564423142,0.23521513969783034,0.21569665644844335,0.9477071227198265,40.366656073527594,50.61107816539845,3.2581197503462755,3.509580551154713,1803477.0,8364883.0,1710964998144.0,-464.0,0.2844880521297455,96.0,0.05885959416627884,-15792.0,9.682403564453125,2696.0,3926.48193359375,2249.0,1647.6190185546875,34559.0,615.6968994140625,1.624175786972046
75126.8259127,0.9462337493896484,0.5388005415766189,0.11147384999351939,15.721792056848575,67.33735823120176,210.25828681157887,19.814918496083344,15.431830186069568,-20.95155380036963,-41.0006028508056,14.58802227722682,-20.981273359669824,-0.017254676473005038,0.21785568557469925,0.9758284564423142,0.23257849216588306,0.21745753556033526,0.9479554130917076,40.366656073527594,50.62949471274134,3.2581197503462755,3.509735669603984,1803733.0,8364890.5,1710964998144.0,-416.0,0.25505825877189636,112.0,0.06866952776908875,-15744.0,9.652973175048828,2679.0,3901.72314453125,2439.0,1786.813232421875,34559.0,615.6968994140625,1.624175786972046
75126.9269255,0.9538226425647736,0.5387337530991477,0.11159154730604592,15.717135398403999,67.39558412478554,210.52233307753653,19.814918496083344,15.431830186069568,-20.95155380036963,-41.0006028508056,14.58802227722682,-20.981273359669824,-0.017254676473005038,0.21785568557469925,0.9758284564423142,0.2323099584539157,0.21745978221686796,0.9480207415037565,40.366656073527594,50.58278866261136,3.2581197503462755,3.50607994198608,1803989.0,8364898.5,1710964998144.0,-400.0,0.24524831771850586,96.0,0.05885959416627884,-15776.0,9.672593116760254,2696.0,3926.48193359375,2324.0,1702.5640869140625,34559.0,615.6968994140625,1.624175786972046
75127.0279245,0.9311155080795288,0.5374377396130754,0.11101222569125391,15.06489483571442,66.66535686266784,207.88033503545978,19.814918496083344,15.431830186069568,-20.95155380036963,-41.0006028508056,14.58802227722682,-20.981273359669824,-0.020229262867663255,0.21678358702867567,0.9760100682466404,0.2323099584539157,0.21745978221686796,0.9480207415037565,40.58581895709268,50.58278866261136,3.2759370652099946,3.50607994198608,1804245.0,8364906.0,1710964998144.0,-416.0,0.25505825877189636,0.0,0.0,-15760.0,9.6627836227417,2671.0,3890.07177734375,2459.0,1801.4652099609375,34559.0,615.6968994140625,1.624175786972046
75127.1281963,0.9314480423927307,0.5373385184760051,0.11029279215947052,15.017338230317433,66.75121873166772,207.6647983883626,19.814918496083344,15.431830186069568,-20.95155380036963,-41.0006028508056,14.58802227722682,-20.981273359669824,-0.020455998948407474,0.21786021003199788,0.9757655871119029,0.2323099584539157,0.21745978221686796,0.9480207415037565,40.21227803258078,50.58278866261136,3.246486391926039,3.50607994198608,1804501.0,8364914.0,1710964998144.0,-416.0,0.25505825877189636,48.0,0.02942979708313942,-15776.0,9.672593116760254,2695.0,3925.025634765625,2339.0,1713.5531005859375,34559.0,615.6968994140625,1.624175786972046
75127.2305607,0.9242687523365021,0.5371003483478345,0.1103107268368474,14.997250015180327,67.03147867670367,208.55441414749941,19.814918496083344,15.431830186069568,-20.95155380036963,-41.0006028508056,14.58802227722682,-20.981273359669824,-0.020455998948407474,0.21786021003199788,0.9757655871119029,0.23135871116177995,0.2181393138478522,0.9480972452884505,40.21227803258078,50.67221499681372,3.246486391926039,3.5119644152282543,1804757.0,8364922.0,1710964998144.0,-384.0,0.23543837666511536,80.0,0.04904966428875923,-15776.0,9.672593116760254,2683.0,3907.548828125,2488.0,1822.7105712890625,34559.0,615.6968994140625,1.624175786972046
75127.3318509,0.9178087413311005,0.5360237585772837,0.11213252483839242,14.907628880774244,67.99160129684134,212.82357716976844,19.814918496083344,15.431830186069568,-20.95155380036963,-41.0006028508056,14.58802227722682,-20.981273359669824,-0.020455998948407474,0.21786021003199788,0.9757655871119029,0.22701210672369812,0.21830946840699156,0.9491082548396284,40.21227803258078,50.524510438844366,3.246486391926039,3.5007516963134435,1805013.0,8364929.5,1710964998144.0,-416.0,0.25505825877189636,64.0,0.039239730685949326,-15728.0,9.643163681030273,2696.0,3926.48193359375,2348.0,1720.146484375,34559.0,615.6968994140625,1.624175786972046
75127.4328631,0.9055140614509583,0.5344453517722055,0.11119784071385308,14.121117794693497,67.13870390754103,209.55103454990848,19.814918496083344,15.431830186069568,-20.95155380036963,-41.0006028508056,14.58802227722682,-20.981273359669824,-0.024070026173070316,0.21695736327668577,0.9758842843083682,0.22701210672369812,0.21830946840699156,0.9491082548396284,40.44000845637947,50.524510438844366,3.26513143016936,3.5007516963134435,1805269.0,8364937.5,1710964998144.0,-432.0,0.2648681700229645,80.0,0.04904966428875923,-15728.0,9.643163681030273,2697.0,3927.9384765625,2286.0,1674.7252197265625,34559.0,615.6968994140625,1.624175786972046
75127.5340181,0.9191533625125885,0.5340490916846483,0.11117206327302065,14.081102273705948,67.62522261191117,211.06059347759245,19.814918496083344,15.431830186069568,-20.95155380036963,-41.0006028508056,14.58802227722682,-20.981273359669824,-0.024070026173070316,0.21695736327668577,0.9758842843083682,0.22541812436804087,0.2195366256781736,0.9492051091267029,40.44000845637947,50.55516551513673,3.26513143016936,3.501733972424306,1805525.0,8364945.5,1710964998144.0,-400.0,0.24524831771850586,0.0,0.0,-15808.0,9.69221305847168,2694.0,3923.5693359375,2251.0,1649.084228515625,34559.0,615.6968994140625,1.624175786972046
75127.6352353,0.9322787523269653,0.5339178633497916,0.11178126944158429,14.014801921436684,67.40900068264479,210.80594162632582,19.814918496083344,15.431830186069568,-20.95155380036963,-41.0006028508056,14.58802227722682,-20.981273359669824,-0.024370398976880914,0.2157022301082292,0.9761550243583466,0.22541812436804087,0.2195366256781736,0.9492051091267029,40.36181690366751,50.55516551513673,3.2586452747828423,3.501733972424306,1805781.0,8364953.0,1710964998144.0,-416.0,0.25505825877189636,16.0,0.009809932671487331,-15808.0,9.69221305847168,2678.0,3900.2666015625,2434.0,1783.150146484375,34559.0,615.6968994140625,1.624175786972046
75127.7358263,0.9637961387634277,0.5339904090409169,0.11318958295488257,14.047319424557752,67.15860728775063,210.98795899701017,19.814918496083344,15.431830186069568,-20.95155380036963,-41.0006028508056,14.58802227722682,-20.981273359669824,-0.024205279496051422,0.2133970595683786,0.9766656538509418,0.22541812436804087,0.2195366256781736,0.9492051091267029,40.39294839715249,50.55516551513673,3.2616513396651916,3.501733972424306,1806037.0,8364961.0,1710964998144.0,-432.0,0.2648681700229645,16.0,0.009809932671487331,-15776.0,9.672593116760254,2695.0,3925.025634765625,2326.0,1704.029296875,34559.0,615.6968994140625,1.624175786972046
75127.8369869,0.9637961387634277,0.5333369816231884,0.11504325391946946,13.983149553390593,67.60156258037723,213.68656022211962,19.814918496083344,15.431830186069568,-20.95155380036963,-41.0006028508056,14.58802227722682,-20.981273359669824,-0.024205279496051422,0.2133970595683786,0.9766656538509418,0.22274981430426022,0.21839441790317327,0.9500980993856116,40.39294839715249,50.74044326277808,3.2616513396651916,3.5137154805073445,1806293.0,8364969.0,1710964998144.0,-416.0,0.25505825877189636,32.0,0.019619865342974663,-15728.0,9.643163681030273,2670.0,3888.615478515625,2456.0,1799.2674560546875,34559.0,615.6968994140625,1.624175786972046
75127.9409491,0.9606925845146179,0.5321354611392872,0.11443735610163652,13.391525633042619,66.93244501845447,211.1770783180724,19.814918496083344,15.431830186069568,-20.95155380036963,-41.0006028508056,14.58802227722682,-20.981273359669824,-0.026949972252249987,0.21253711287608007,0.9767812829113299,0.22274981430426022,0.21839441790317327,0.9500980993856116,40.37702158912927,50.74044326277808,3.2598131214159523,3.5137154805073445,1806549.0,8364976.5,1710964998144.0,-416.0,0.25505825877189636,48.0,0.02942979708313942,-15728.0,9.643163681030273,2695.0,3925.025634765625,2336.0,1711.3553466796875,34559.0,615.6968994140625,1.624175786972046
75128.0419585,0.9428460001945496,0.5317688793460787,0.11521252754517752,13.350977674893885,67.23035740464547,212.66452021570507,19.814918496083344,15.431830186069568,-20.95155380036963,-41.0006028508056,14.58802227722682,-20.981273359669824,-0.026949972252249987,0.21253711287608007,0.9767812829113299,0.22125327551549895,0.21819677599558937,0.9504931115051772,40.37702158912927,50.58565173730236,3.2598131214159523,3.5024150454795286,1806805.0,8364984.5,1710964998144.0,-368.0,0.22562845051288605,16.0,0.009809932671487331,-15792.0,9.682403564453125,2682.0,3906.09228515625,2483.0,1819.047607421875,34559.0,615.6968994140625,1.624175786972046
75128.1424794,0.9291562438011169,0.5351808649671685,0.12101679092076756,15.068378598727683,68.29459438087724,220.1395578027142,19.814918496083344,15.431830186069568,-20.95155380036963,-41.0006028508056,14.58802227722682,-20.981273359669824,-0.01914180567631836,0.20794851373410236,0.9779524563654555,0.22125327551549895,0.21819677599558937,0.9504931115051772,40.607883613800404,50.58565173730236,3.2765316910917797,3.5024150454795286,1807061.0,8364992.0,1710964998144.0,-352.0,0.21581850945949554,64.0,0.039239730685949326,-15808.0,9.69221305847168,2688.0,3914.830810546875,2325.0,1703.2967529296875,34559.0,615.6968994140625,1.624175786972046
75128.242963,0.9470028281211853,0.5371425946478727,0.11751347425036107,15.228294277039849,66.54617489103815,211.9813457598571,19.814918496083344,15.431830186069568,-20.95155380036963,-41.0006028508056,14.58802227722682,-20.981273359669824,-0.01914180567631836,0.20794851373410236,0.9779524563654555,0.22920746080250254,0.21822477557800027,0.9485999616468476,40.607883613800404,50.71881335374105,3.2765316910917797,3.5155723216317387,1807317.0,8365000.0,1710964998144.0,-416.0,0.25505825877189636,32.0,0.019619865342974663,-15776.0,9.672593116760254,2697.0,3927.9384765625,2277.0,1668.1318359375,34559.0,615.6968994140625,1.624175786972046
75128.3440254,0.9681707322597504,0.5385459435522391,0.12008468619575519,15.944730881500632,66.92973445965688,214.99208867451767,19.814918496083344,15.431830186069568,-20.95155380036963,-41.0006028508056,14.58802227722682,-20.981273359669824,-0.015920598876907235,0.20575696594547915,0.9784736100152684,0.22920746080250254,0.21822477557800027,0.9485999616468476,40.19481095362454,50.71881335374105,3.242333749841384,3.5155723216317387,1807573.0,8365008.0,1710964998144.0,-416.0,0.25505825877189636,48.0,0.02942979708313942,-15744.0,9.652973175048828,2685.0,3910.46142578125,2461.0,1802.930419921875,34559.0,615.6968994140625,1.624175786972046
75128.4447228,0.9512859284877777,0.5397195499153108,0.11929744821360533,16.024519296378855,65.67437526581337,210.38024308437772,19.814918496083344,15.431830186069568,-20.95155380036963,-41.0006028508056,14.58802227722682,-20.981273359669824,-0.015920598876907235,0.20575696594547915,0.9784736100152684,0.23390301307501934,0.21607458036317084,0.9479457559350676,40.19481095362454,50.66873865164204,3.242333749841384,3.5134865181858146,1807829.0,8365015.5,1710964998144.0,-416.0,0.25505825877189636,64.0,0.039239730685949326,-15712.0,9.633354187011719,2682.0,3906.09228515625,2542.0,1862.2711181640625,34559.0,615.6968994140625,1.624175786972046
75128.5458159,0.9525858759880066,0.539326808744848,0.12113477302853537,16.00151147972278,65.78545141748346,212.03664550249596,19.814918496083344,15.431830186069568,-20.95155380036963,-41.0006028508056,14.58802227722682,-20.981273359669824,-0.015920598876907235,0.20575696594547915,0.9784736100152684,0.2323067395004356,0.21417428280152073,0.9487691791838155,40.19481095362454,50.70042015264968,3.242333749841384,3.514595610295495,1808085.0,8365023.5,1710964998144.0,-432.0,0.2648681700229645,32.0,0.019619865342974663,-15792.0,9.682403564453125,2695.0,3925.025634765625,2376.0,1740.6593017578125,34559.0,615.6968994140625,1.624175786972046
75128.6469286,0.9326963126659393,0.5381672637425179,0.11981017158186602,15.413211631428265,65.31492991927017,209.6229248920545,19.814918496083344,15.431830186069568,-20.95155380036963,-41.0006028508056,14.58802227722682,-20.981273359669824,-0.018583116749366985,0.2061900115137081,0.9783354981415405,0.2323067395004356,0.21417428280152073,0.9487691791838155,40.22523606349611,50.70042015264968,3.2452931581872626,3.514595610295495,1808341.0,8365031.0,1710964998144.0,-432.0,0.2648681700229645,16.0,0.009809932671487331,-15744.0,9.652973175048828,2690.0,3917.74365234375,2285.0,1673.99267578125,34559.0,615.6968994140625,1.624175786972046
75128.7477489,0.9211151897907257,0.5383488593791961,0.1200291798402614,15.504438369621965,65.38545766958967,209.99759030767913,19.814918496083344,15.431830186069568,-20.95155380036963,-41.0006028508056,14.58802227722682,-20.981273359669824,-0.018166513101750242,0.2061022961581721,0.9783618049167971,0.2323067395004356,0.21417428280152073,0.9487691791838155,40.168942455302094,50.70042015264968,3.241361030030008,3.514595610295495,1808597.0,8365039.0,1710964998144.0,-464.0,0.2844880521297455,48.0,0.02942979708313942,-15840.0,9.711833000183105,2697.0,3927.9384765625,2256.0,1652.7471923828125,34559.0,615.6968994140625,1.624175786972046
75128.8488947,0.9367000460624695,0.5381350409398971,0.12075573321050448,15.48945844122502,65.49729285135975,210.87070304625422,19.814918496083344,15.431830186069568,-20.95155380036963,-41.0006028508056,14.58802227722682,-20.981273359669824,-0.018166513101750242,0.2061022961581721,0.9783618049167971,0.23144108240856848,0.21359593879083674,0.9491110579408563,40.168942455302094,50.6992561053964,3.241361030030008,3.5133433160749727,1808853.0,8365047.0,1710964998144.0,-448.0,0.274678111076355,48.0,0.02942979708313942,-15776.0,9.672593116760254,2681.0,3904.635986328125,2446.0,1791.94140625,34559.0,615.6968994140625,1.624175786972046
75128.9499819,0.943169504404068,0.537591503839581,0.11911906661679439,15.218974032076359,65.49210441197398,209.7239562969115,19.814918496083344,15.431830186069568,-20.95155380036963,-41.0006028508056,14.58802227722682,-20.981273359669824,-0.019411875677607857,0.20804982592190815,0.977925584600659,0.23144108240856848,0.21359593879083674,0.9491110579408563,39.87181446479276,50.6992561053964,3.218000493620559,3.5133433160749727,1809109.0,8365054.5,1710964998144.0,-432.0,0.2648681700229645,48.0,0.02942979708313942,-15792.0,9.682403564453125,2679.0,3901.72314453125,2531.0,1854.21240234375,34559.0,615.6968994140625,1.624175786972046
75129.0505078,0.943169504404068,0.5370072571993079,0.1204752209089851,15.173622711935867,65.92244436759302,212.068480890317,19.814918496083344,15.431830186069568,-20.95155380036963,-41.0006028508056,14.58802227722682,-20.981273359669824,-0.019411875677607857,0.20804982592190815,0.977925584600659,0.2290816117575549,0.21306454025545057,0.9498026725800968,39.87181446479276,50.71466863494442,3.218000493620559,3.513693993998138,1809365.0,8365062.5,1710964998144.0,-448.0,0.274678111076355,0.0,0.0,-15792.0,9.682403564453125,2695.0,3925.025634765625,2374.0,1739.194091796875,34559.0,615.6968994140625,1.624175786972046
