timestamp,Timestamp RAW (no units)_002,Timestamp CAL (mSecs)_002,System Timestamp CAL (mSecs)_002,Wide Range Accelerometer X RAW (no units)_002,Wide Range Accelerometer X CAL (m/(sec ^2))_002,Wide Range Accelerometer Y RAW (no units)_002,Wide Range Accelerometer Y CAL (m/(sec ^2))_002,Wide Range Accelerometer Z RAW (no units)_002,Wide Range Accelerometer Z CAL (m/(sec ^2))_002,VSenseBatt RAW (no units)_002,VSenseBatt CAL (m Volts)_002,Internal ADC A13 RAW (no units)_002,Internal ADC A13 CAL (m Volts)_002,GSR RAW (no units)_002,GSR CAL (kOhms)_002,GSR Conductance CAL (u Siemens)_002,confidence_002,norm_pos_x_002,norm_pos_y_002,gaze_point_3d_x_002,gaze_point_3d_y_002,gaze_point_3d_z_002,eye_center0_3d_x_002,eye_center0_3d_y_002,eye_center0_3d_z_002,eye_center1_3d_x_002,eye_center1_3d_y_002,eye_center1_3d_z_002,gaze_normal0_x_002,gaze_normal0_y_002,gaze_normal0_z_002,gaze_normal1_x_002,gaze_normal1_y_002,gaze_normal1_z_002,diameter0_2d_002,diameter1_2d_002,diameter0_3d_002,diameter1_3d_002
327379.8470214,6027022.0,809265.625,1711217311744.0,-544.0,0.3335376977920532,224.0,0.1373390555381775,-15696.0,9.623543739318848,2671.0,3890.07177734375,2578.0,1888.6446533203125,35576.0,321.1009216308594,3.114285707473755,0.949076235294342,0.2918642759840182,0.3274861103389428,-89.50423036936317,29.98521260344436,258.565980502942,19.940815918045622,12.513302451713287,-24.010191102776542,-40.784466703402174,15.436597062525049,-18.766209842448035,-0.3599716731096557,0.07038555200093485,0.9303043956835627,-0.17334670411887027,0.038766222929844225,0.9840976070141002,66.14961778841626,58.973297469388804,4.9614729032006535,3.5140729814628306
327379.9473085,6027278.0,809273.4375,1711217311744.0,-560.0,0.3433476388454437,272.0,0.1667688488960266,-15728.0,9.643163681030273,2655.0,3866.769287109375,2554.0,1871.062255859375,35576.0,321.1009216308594,3.114285707473755,0.9641022682189941,0.28969993709680136,0.32467805677525996,-88.38568034975997,29.979671564396874,252.25898177582658,19.940815918045622,12.513302451713287,-24.010191102776542,-40.784466703402174,15.436597062525049,-18.766209842448035,-0.3637603118840013,0.0727572766295467,0.928646765027212,-0.17334670411887027,0.038766222929844225,0.9840976070141002,66.07644022114033,58.973297469388804,4.956101625179624,3.5140729814628306
327380.0475187,6027534.0,809281.25,1711217311744.0,-576.0,0.35315757989883423,272.0,0.1667688488960266,-15712.0,9.633354187011719,2672.0,3891.5283203125,2562.0,1876.923095703125,35576.0,321.1009216308594,3.114285707473755,0.9641022682189941,0.29005222746802206,0.3226984439688776,-87.06940855756119,30.058666671355773,248.92647988561964,19.940815918045622,12.513302451713287,-24.010191102776542,-40.784466703402174,15.436597062525049,-18.766209842448035,-0.3637603118840013,0.0727572766295467,0.928646765027212,-0.17068853979369983,0.04072046608667739,0.9844832482194799,66.07644022114033,58.75521288087295,4.956101625179624,3.5023610014068636
327380.1484432,6027790.0,809289.0625,1711217311744.0,-560.0,0.3433476388454437,240.0,0.1471489816904068,-15712.0,9.633354187011719,2645.0,3852.205078125,2526.0,1850.5494384765625,35577.0,320.9499206542969,3.115751028060913,0.962926059961319,0.2878016876062053,0.31960215760437305,-85.99774820072818,30.090539362517177,242.79626649903986,19.940815918045622,12.513302451713287,-24.010191102776542,-40.784466703402174,15.436597062525049,-18.766209842448035,-0.36767409445130644,0.07550496149741205,0.9268844378123338,-0.17068853979369983,0.04072046608667739,0.9844832482194799,66.03281730791164,58.75521288087295,4.95246407865681,3.5023610014068636
327380.2494488,6028046.0,809296.875,1711217311744.0,-608.0,0.37277743220329285,272.0,0.1667688488960266,-15728.0,9.643163681030273,2662.0,3876.964111328125,2531.0,1854.21240234375,35576.0,321.1009216308594,3.114285707473755,0.962926059961319,0.2879374706862333,0.3176083502612891,-85.70471241738944,30.473381178315677,242.09246538339505,19.940815918045622,12.513302451713287,-24.010191102776542,-40.784466703402174,15.436597062525049,-18.766209842448035,-0.36767409445130644,0.07550496149741205,0.9268844378123338,-0.1699817020243569,0.04380804170531013,0.9844729942760484,66.03281730791164,58.939037574319656,4.95246407865681,3.512967334261386
327380.3503882,6028302.0,809304.6875,1711217311744.0,-544.0,0.3335376977920532,240.0,0.1471489816904068,-15744.0,9.652973175048828,2655.0,3866.769287109375,2533.0,1855.6776123046875,35576.0,321.1009216308594,3.114285707473755,0.9686472415924072,0.2876357911284413,0.3172264185523507,-85.56668297157636,30.468854455855393,241.29846822990575,19.940815918045622,12.513302451713287,-24.010191102776542,-40.784466703402174,15.436597062525049,-18.766209842448035,-0.3681980380414673,0.07581680208698924,0.9266509684361834,-0.1699817020243569,0.04380804170531013,0.9844729942760484,66.01619785787751,58.939037574319656,4.95067146332084,3.512967334261386
327380.4515122,6028558.0,809312.5,1711217311744.0,-496.0,0.3041079044342041,256.0,0.1569589227437973,-15744.0,9.652973175048828,2673.0,3892.984619140625,2557.0,1873.2601318359375,35577.0,320.9499206542969,3.115751028060913,0.9686472415924072,0.2877421711182822,0.3169033846266103,-85.14677830921214,30.409819139308834,240.24353524085237,19.940815918045622,12.513302451713287,-24.010191102776542,-40.784466703402174,15.436597062525049,-18.766209842448035,-0.3681980380414673,0.07581680208698924,0.9266509684361834,-0.16910059233122113,0.043867395713828874,0.984622080428078,66.01619785787751,58.89722699215271,4.95067146332084,3.5104937926713946
327380.5528011,6028814.0,809320.3125,1711217311744.0,-528.0,0.3237277865409851,304.0,0.18638871610164642,-15712.0,9.633354187011719,2670.0,3888.615478515625,2570.0,1882.783935546875,35576.0,321.1009216308594,3.114285707473755,0.9529746472835541,0.2857766157001446,0.3132790957992905,-84.2537413261446,30.63097818126591,235.12328339199306,19.940815918045622,12.513302451713287,-24.010191102776542,-40.784466703402174,15.436597062525049,-18.766209842448035,-0.37158108098597614,0.07973720145594446,0.9249699881386788,-0.16910059233122113,0.043867395713828874,0.984622080428078,66.10594799355867,58.89722699215271,4.957879698731862,3.5104937926713946
327380.6533087,6029070.0,809328.125,1711217311744.0,-496.0,0.3041079044342041,272.0,0.1667688488960266,-15728.0,9.643163681030273,2670.0,3888.615478515625,2569.0,1882.05126953125,35577.0,320.9499206542969,3.115751028060913,0.9701813459396362,0.28490606850649686,0.31282316881887384,-83.89426002810457,30.476309081500876,233.01855189626323,19.940815918045622,12.513302451713287,-24.010191102776542,-40.784466703402174,15.436597062525049,-18.766209842448035,-0.3730959690022835,0.07955634212743184,0.9243755656342015,-0.16910059233122113,0.043867395713828874,0.984622080428078,65.98428119946146,58.89722699215271,4.948474007693072,3.5104937926713946
327380.7535588,6029326.0,809335.9375,1711217311744.0,-480.0,0.2942979633808136,304.0,0.18638871610164642,-15648.0,9.594114303588867,2656.0,3868.2255859375,2544.0,1863.7362060546875,35577.0,320.9499206542969,3.115751028060913,0.9701813459396362,0.2849312746691418,0.31190060066412006,-83.92807216398039,30.7002341267801,233.1184781355637,19.940815918045622,12.513302451713287,-24.010191102776542,-40.784466703402174,15.436597062525049,-18.766209842448035,-0.3730959690022835,0.07955634212743184,0.9243755656342015,-0.16912236612475823,0.045494289295951916,0.9845445113948985,65.98428119946146,58.74806665469012,4.948474007693072,3.5017262592747667
327380.8544085,6029582.0,809343.75,1711217311744.0,-512.0,0.3139178454875946,272.0,0.1667688488960266,-15648.0,9.594114303588867,2671.0,3890.07177734375,2563.0,1877.6556396484375,35577.0,320.9499206542969,3.115751028060913,0.9701813459396362,0.28497116963904606,0.3117329797106474,-83.78284906414771,30.69067745799,232.76013984411378,19.940815918045622,12.513302451713287,-24.010191102776542,-40.784466703402174,15.436597062525049,-18.766209842448035,-0.3730959690022835,0.07955634212743184,0.9243755656342015,-0.1688008172963111,0.04560175197862545,0.984594720835216,65.98428119946146,58.66392087092364,4.948474007693072,3.4975236863618306
327380.9546557,6029838.0,809351.5625,1711217311744.0,-512.0,0.3139178454875946,272.0,0.1667688488960266,-15680.0,9.613734245300293,2672.0,3891.5283203125,2572.0,1884.2490234375,35576.0,321.1009216308594,3.114285707473755,0.9611804783344269,0.2840339595455005,0.31051198468956087,-83.38783442625045,30.682245689701528,230.4726308512322,19.940815918045622,12.513302451713287,-24.010191102776542,-40.784466703402174,15.436597062525049,-18.766209842448035,-0.37471058632786897,0.08057612050312,0.9236338372420596,-0.1688008172963111,0.04560175197862545,0.984594720835216,66.03571060696827,58.66392087092364,4.951606008609421,3.4975236863618306
327381.0554411,6030094.0,809359.375,1711217311744.0,-496.0,0.3041079044342041,288.0,0.17657878994941711,-15760.0,9.6627836227417,2673.0,3892.984619140625,2579.0,1889.3773193359375,35576.0,321.1009216308594,3.114285707473755,0.9589984714984894,0.28363153447483513,0.30913361334600975,-83.2020574436165,30.86159531178332,229.42853687975665,19.940815918045622,12.513302451713287,-24.010191102776542,-40.784466703402174,15.436597062525049,-18.766209842448035,-0.37538747873473277,0.08243517431215784,0.9231948238835098,-0.1688008172963111,0.04560175197862545,0.984594720835216,65.8957868008305,58.66392087092364,4.941181319531919,3.4975236863618306
327381.1565501,6030350.0,809367.1875,1711217311744.0,-480.0,0.2942979633808136,288.0,0.17657878994941711,-15712.0,9.633354187011719,2661.0,3875.5078125,2560.0,1875.4578857421875,35577.0,320.9499206542969,3.115751028060913,0.9589984714984894,0.2835843818453122,0.3096018454219561,-83.32971609477698,30.797904133187018,229.7359080564304,19.940815918045622,12.513302451713287,-24.010191102776542,-40.784466703402174,15.436597062525049,-18.766209842448035,-0.37538747873473277,0.08243517431215784,0.9231948238835098,-0.1691063642958682,0.044959723107471865,0.9845718159955282,65.8957868008305,58.90885681217734,4.941181319531919,3.51188849117854
327381.2574817,6030606.0,809375.0,1711217311744.0,-608.0,0.37277743220329285,256.0,0.1569589227437973,-15664.0,9.603923797607422,2671.0,3890.07177734375,2574.0,1885.7142333984375,35576.0,321.1009216308594,3.114285707473755,0.9816201031208038,0.28279977619842056,0.3088145030302508,-83.0106221505201,30.74002735191283,227.88195843239816,19.940815918045622,12.513302451713287,-24.010191102776542,-40.784466703402174,15.436597062525049,-18.766209842448035,-0.37673981954931934,0.0828964800576832,0.922602450657916,-0.1691063642958682,0.044959723107471865,0.9845718159955282,65.83242206975599,58.90885681217734,4.935956410373707,3.51188849117854
327381.358442,6030862.0,809382.8125,1711217311744.0,-560.0,0.3433476388454437,288.0,0.17657878994941711,-15616.0,9.574494361877441,2670.0,3888.615478515625,2572.0,1884.2490234375,35576.0,321.1009216308594,3.114285707473755,0.9816201031208038,0.2831311663476056,0.3080313783319546,-81.75192536514913,30.491883453272973,224.80044437150775,19.940815918045622,12.513302451713287,-24.010191102776542,-40.784466703402174,15.436597062525049,-18.766209842448035,-0.37673981954931934,0.0828964800576832,0.922602450657916,-0.16624140233852272,0.044667316660164984,0.985072904393833,65.83242206975599,58.49865842391185,4.935956410373707,3.488036157683561
327381.4593847,6031118.0,809390.625,1711217311744.0,-560.0,0.3433476388454437,288.0,0.17657878994941711,-15648.0,9.594114303588867,2671.0,3890.07177734375,2582.0,1891.5750732421875,35576.0,321.1009216308594,3.114285707473755,0.9664376974105835,0.2818163639374933,0.306436053474887,-81.24424393142696,30.458202478173305,221.8087984073844,19.940815918045622,12.513302451713287,-24.010191102776542,-40.784466703402174,15.436597062525049,-18.766209842448035,-0.37899266122331493,0.0841257108481475,0.9215679180142738,-0.16624140233852272,0.044667316660164984,0.985072904393833,65.83220980806892,58.49865842391185,4.935765709518114,3.488036157683561
327381.5599083,6031374.0,809398.4375,1711217311744.0,-528.0,0.3237277865409851,224.0,0.1373390555381775,-15712.0,9.633354187011719,2655.0,3866.769287109375,2550.0,1868.1318359375,35576.0,321.1009216308594,3.114285707473755,0.9664376974105835,0.2820729946885413,0.30576548601662734,-80.31299696755119,30.28816943217936,219.54607281231165,19.940815918045622,12.513302451713287,-24.010191102776542,-40.784466703402174,15.436597062525049,-18.766209842448035,-0.37899266122331493,0.0841257108481475,0.9215679180142738,-0.164030230195423,0.04455364200884875,0.9854486574985952,65.83220980806892,58.76573213122115,4.935765709518114,3.5044207031655485
327381.6607386,6031630.0,809406.25,1711217311744.0,-544.0,0.3335376977920532,224.0,0.1373390555381775,-15696.0,9.623543739318848,2654.0,3865.312744140625,2535.0,1857.142822265625,35576.0,321.1009216308594,3.114285707473755,0.9691971242427826,0.2816699312338366,0.304969439872652,-80.15876584270558,30.341511284223504,218.63586874613213,19.940815918045622,12.513302451713287,-24.010191102776542,-40.784466703402174,15.436597062525049,-18.766209842448035,-0.3796758204448202,0.08501121728246112,0.9212053866026332,-0.164030230195423,0.04455364200884875,0.9854486574985952,65.74876730014178,58.76573213122115,4.929070944115672,3.5044207031655485
327381.762242,6031886.0,809414.0625,1711217311744.0,-560.0,0.3433476388454437,256.0,0.1569589227437973,-15696.0,9.623543739318848,2670.0,3888.615478515625,2552.0,1869.5970458984375,35576.0,321.1009216308594,3.114285707473755,0.9691971242427826,0.2820297419322031,0.30538761039254914,-78.69326576566394,29.750063570014134,215.0589279984166,19.940815918045622,12.513302451713287,-24.010191102776542,-40.784466703402174,15.436597062525049,-18.766209842448035,-0.3796758204448202,0.08501121728246112,0.9212053866026332,-0.16052103644527463,0.04178457617273014,0.9861475782318789,65.74876730014178,58.526798367027524,4.929070944115672,3.490136359365019
327381.8624741,6032142.0,809421.875,1711217311744.0,-544.0,0.3335376977920532,224.0,0.1373390555381775,-15680.0,9.613734245300293,2670.0,3888.615478515625,2568.0,1881.3187255859375,35576.0,321.1009216308594,3.114285707473755,1.0,0.3357047839628364,0.3613525695104711,-126.25608215103402,38.81924536045466,476.67537710307874,nan,nan,nan,-90.92645359993296,52.40809453638143,-21.889724487992467,nan,nan,nan,-0.07065925710220215,-0.02717769835185345,0.9971302031821423,nan,58.526798367027524,nan,3.490136359365019
327381.9633396,6032398.0,809429.6875,1711217311744.0,-528.0,0.3237277865409851,272.0,0.1667688488960266,-15712.0,9.633354187011719,2656.0,3868.2255859375,2536.0,1857.87548828125,35576.0,321.1009216308594,3.114285707473755,0.963331013917923,0.2809230175359911,0.30599846909439443,-78.76914800984875,29.497600955206963,214.02743287713565,19.940815918045622,12.513302451713287,-24.010191102776542,-40.784466703402174,15.436597062525049,-18.766209842448035,-0.38132671665507667,0.08476145563519129,0.9205462676061765,-0.16155216648140341,0.04048936876193062,0.986033218772281,65.82237697026777,58.822355399316095,4.934837434382342,3.507562823140694
327382.0643047,6032654.0,809437.5,1711217311744.0,-528.0,0.3237277865409851,272.0,0.1667688488960266,-15696.0,9.623543739318848,2665.0,3881.333251953125,2552.0,1869.5970458984375,35576.0,321.1009216308594,3.114285707473755,0.986794501543045,0.2807289974904786,0.3049607482578178,-78.68706816447049,29.655127752832584,213.55810890149405,19.940815918045622,12.513302451713287,-24.010191102776542,-40.784466703402174,15.436597062525049,-18.766209842448035,-0.38164203694804094,0.0862715834345727,0.9202752683441198,-0.16155216648140341,0.04048936876193062,0.986033218772281,65.55773871950359,58.822355399316095,4.9147404058048485,3.507562823140694
327382.1652899,6032910.0,809445.3125,1711217311744.0,-512.0,0.3139178454875946,288.0,0.17657878994941711,-15696.0,9.623543739318848,2671.0,3890.07177734375,2565.0,1879.120849609375,35575.0,321.2520446777344,3.112820625305176,0.986794501543045,0.2807034780099757,0.30579072239987004,-78.66240135829258,29.47039820562795,213.48463043243294,19.940815918045622,12.513302451713287,-24.010191102776542,-40.784466703402174,15.436597062525049,-18.766209842448035,-0.38164203694804094,0.0862715834345727,0.9202752683441198,-0.1615364633405343,0.03903287477717182,0.9860945216854526,65.55773871950359,58.47891689367094,4.9147404058048485,3.487369305090427
327382.2674255,6033166.0,809453.125,1711217311744.0,-528.0,0.3237277865409851,272.0,0.1667688488960266,-15632.0,9.584303855895996,2671.0,3890.07177734375,2579.0,1889.3773193359375,35576.0,321.1009216308594,3.114285707473755,0.986794501543045,0.2809786544340179,0.30490768018253567,-77.7439961479927,29.344848722335485,211.2751172029341,19.940815918045622,12.513302451713287,-24.010191102776542,-40.784466703402174,15.436597062525049,-18.766209842448035,-0.38164203694804094,0.0862715834345727,0.9202752683441198,-0.15920167314794526,0.03921556477478742,0.9864669111259075,65.55773871950359,58.541873212211314,4.9147404058048485,3.4918459751540363
327382.3682076,6033422.0,809460.9375,1711217311744.0,-528.0,0.3237277865409851,256.0,0.1569589227437973,-15616.0,9.574494361877441,2662.0,3876.964111328125,2558.0,1873.99267578125,35575.0,321.2520446777344,3.112820625305176,0.974004715681076,0.28062003674390135,0.30503414237078075,-77.63522381517308,29.22881028423251,210.58438400838006,19.940815918045622,12.513302451713287,-24.010191102776542,-40.784466703402174,15.436597062525049,-18.766209842448035,-0.3822608867638014,0.08567618966903227,0.9200740214647668,-0.15920167314794526,0.03921556477478742,0.9864669111259075,65.9374422700374,58.541873212211314,4.943950911125839,3.4918459751540363
327382.4690724,6033678.0,809468.75,1711217311744.0,-560.0,0.3433476388454437,224.0,0.1373390555381775,-15616.0,9.574494361877441,2663.0,3878.42041015625,2559.0,1874.7252197265625,35576.0,321.1009216308594,3.114285707473755,0.974004715681076,0.28075507968797464,0.30400978633843556,-77.27752717572858,29.320993267195526,209.7362944712425,19.940815918045622,12.513302451713287,-24.010191102776542,-40.784466703402174,15.436597062525049,-18.766209842448035,-0.3822608867638014,0.08567618966903227,0.9200740214647668,-0.1582393129178748,0.0404406353863283,0.9865722856723823,65.9374422700374,58.725096479722026,4.943950911125839,3.502682821270443
327382.5695761,6033934.0,809476.5625,1711217311744.0,-576.0,0.35315757989883423,224.0,0.1373390555381775,-15664.0,9.603923797607422,2657.0,3869.68212890625,2539.0,1860.0732421875,35576.0,321.1009216308594,3.114285707473755,0.9877179861068726,0.2804903999001145,0.30240416542497595,-77.16829592048106,29.56922532374876,209.10526876104677,19.940815918045622,12.513302451713287,-24.010191102776542,-40.784466703402174,15.436597062525049,-18.766209842448035,-0.3826865861099565,0.0880474449620471,0.919673107276255,-0.1582393129178748,0.0404406353863283,0.9865722856723823,65.57501000198067,58.725096479722026,4.915974731040512,3.502682821270443
327382.6703047,6034190.0,809484.375,1711217311744.0,-576.0,0.35315757989883423,224.0,0.1373390555381775,-15664.0,9.603923797607422,2671.0,3890.07177734375,2566.0,1879.853515625,35575.0,321.2520446777344,3.112820625305176,0.9877179861068726,0.28045282754560014,0.30273140052323344,-77.26089292661578,29.533021688912413,209.3235159363632,19.940815918045622,12.513302451713287,-24.010191102776542,-40.784466703402174,15.436597062525049,-18.766209842448035,-0.3826865861099565,0.0880474449620471,0.919673107276255,-0.15849334175156202,0.04001847158479906,0.9865487228477057,65.57501000198067,58.617633335639496,4.915974731040512,3.496368869950782
327382.7714999,6034446.0,809492.1875,1711217311744.0,-544.0,0.3335376977920532,208.0,0.12752912938594818,-15680.0,9.613734245300293,2656.0,3868.2255859375,2540.0,1860.805908203125,35575.0,321.2520446777344,3.112820625305176,0.994052529335022,0.2788074633865169,0.30108408617749804,-76.73839915648685,29.439398376037417,206.0757767050352,19.940815918045622,12.513302451713287,-24.010191102776542,-40.784466703402174,15.436597062525049,-18.766209842448035,-0.3854772715579358,0.08899805644320384,0.9184152759300019,-0.15849334175156202,0.04001847158479906,0.9865487228477057,65.77099452269373,58.617633335639496,4.9310624202699005,3.496368869950782
327382.8724339,6034702.0,809500.0,1711217311744.0,-512.0,0.3139178454875946,224.0,0.1373390555381775,-15728.0,9.643163681030273,2669.0,3887.158935546875,2556.0,1872.5274658203125,35575.0,321.2520446777344,3.112820625305176,0.994052529335022,0.27880376004334306,0.30098983111476096,-76.76572489057149,29.46825816463018,206.142644951924,19.940815918045622,12.513302451713287,-24.010191102776542,-40.784466703402174,15.436597062525049,-18.766209842448035,-0.3854772715579358,0.08899805644320384,0.9184152759300019,-0.1585593398815099,0.04022111416410531,0.9865298767456249,65.77099452269373,58.61305284917956,4.9310624202699005,3.495978485874305
327382.9734473,6034958.0,809507.8125,1711217311744.0,-528.0,0.3237277865409851,192.0,0.11771918833255768,-15728.0,9.643163681030273,2672.0,3891.5283203125,2568.0,1881.3187255859375,35574.0,321.4033508300781,3.1113553047180176,0.9826176762580872,0.27875268107414397,0.2999153492741615,-76.73183730895178,29.66338350620224,205.9677705170489,19.940815918045622,12.513302451713287,-24.010191102776542,-40.784466703402174,15.436597062525049,-18.766209842448035,-0.38554522727538604,0.09071927487096602,0.9182183241974954,-0.1585593398815099,0.04022111416410531,0.9865298767456249,65.59968604391794,58.61305284917956,4.917775906891242,3.495978485874305
327383.0743918,6035214.0,809515.625,1711217311744.0,-512.0,0.3139178454875946,224.0,0.1373390555381775,-15712.0,9.633354187011719,2663.0,3878.42041015625,2559.0,1874.7252197265625,35575.0,321.2520446777344,3.112820625305176,0.9616391658782959,0.2783359853860474,0.2999614004431189,-76.60987902762201,29.54994897276222,205.19382390755104,19.940815918045622,12.513302451713287,-24.010191102776542,-40.784466703402174,15.436597062525049,-18.766209842448035,-0.38625881350208724,0.0901935626553654,0.9179701793890107,-0.1585593398815099,0.04022111416410531,0.9865298767456249,65.88058098799048,58.61305284917956,4.9393458722221295,3.495978485874305
327383.1756449,6035470.0,809523.4375,1711217311744.0,-592.0,0.36296749114990234,288.0,0.17657878994941711,-15712.0,9.633354187011719,2656.0,3868.2255859375,2540.0,1860.805908203125,35574.0,321.4033508300781,3.1113553047180176,0.9616391658782959,0.2782908784208965,0.299408752592076,-76.85661439006282,29.749515833691273,205.79127390564162,19.940815918045622,12.513302451713287,-24.010191102776542,-40.784466703402174,15.436597062525049,-18.766209842448035,-0.38625881350208724,0.0901935626553654,0.9179701793890107,-0.15917303433632835,0.04154218311611912,0.986376293390161,65.88058098799048,58.69462752144407,4.9393458722221295,3.500717032816532
327383.2766346,6035726.0,809531.25,1711217311744.0,-528.0,0.3237277865409851,272.0,0.1667688488960266,-15648.0,9.594114303588867,2665.0,3881.333251953125,2546.0,1865.201416015625,35574.0,321.4033508300781,3.1113553047180176,0.9917621612548828,0.27803158744468204,0.2986920439800528,-76.76737855035346,29.822446772657823,205.2547082819906,19.940815918045622,12.513302451713287,-24.010191102776542,-40.784466703402174,15.436597062525049,-18.766209842448035,-0.3866893440519366,0.09109842274330335,0.9176995306582462,-0.15917303433632835,0.04154218311611912,0.986376293390161,65.85001084317607,58.69462752144407,4.936563011972424,3.500717032816532
327383.3775395,6035982.0,809539.0625,1711217311744.0,-528.0,0.3237277865409851,224.0,0.1373390555381775,-15648.0,9.594114303588867,2672.0,3891.5283203125,2566.0,1879.853515625,35574.0,321.4033508300781,3.1113553047180176,0.9917621612548828,0.2778944087998101,0.2997681015937861,-77.11863607302013,29.724274033682892,206.07534502636116,19.940815918045622,12.513302451713287,-24.010191102776542,-40.784466703402174,15.436597062525049,-18.766209842448035,-0.3866893440519366,0.09109842274330335,0.9176995306582462,-0.16014354930487848,0.04023529272438576,0.986273372263197,65.85001084317607,58.78289150929239,4.936563011972424,3.5057219205660326
327383.4793934,6036238.0,809546.875,1711217311744.0,-496.0,0.3041079044342041,304.0,0.18638871610164642,-15664.0,9.603923797607422,2670.0,3888.615478515625,2566.0,1879.853515625,35574.0,321.4033508300781,3.1113553047180176,0.9970852732658386,0.27670371221333007,0.2984829053797945,-76.74344291984329,29.672831664532026,203.77013046874578,19.940815918045622,12.513302451713287,-24.010191102776542,-40.784466703402174,15.436597062525049,-18.766209842448035,-0.38869965629750475,0.09193731623166779,0.9167661136180373,-0.16014354930487848,0.04023529272438576,0.986273372263197,65.77695937719018,58.78289150929239,4.930870398224067,3.5057219205660326
327383.5803213,6036494.0,809554.6875,1711217311744.0,-528.0,0.3237277865409851,320.0,0.19619865715503693,-15680.0,9.613734245300293,2657.0,3869.68212890625,2550.0,1868.1318359375,35574.0,321.4033508300781,3.1113553047180176,0.9970852732658386,0.2766309373245787,0.29836206021588474,-77.03148569453936,29.798303606254898,204.45430707410253,19.940815918045622,12.513302451713287,-24.010191102776542,-40.784466703402174,15.436597062525049,-18.766209842448035,-0.38869965629750475,0.09193731623166779,0.9167661136180373,-0.16089070851627027,0.0408832526028958,0.9861251135478399,65.77695937719018,58.5806484776835,4.930870398224067,3.4937824448760795
327383.6811653,6036750.0,809562.5,1711217311744.0,-528.0,0.3237277865409851,272.0,0.1667688488960266,-15712.0,9.633354187011719,2670.0,3888.615478515625,2558.0,1873.99267578125,35574.0,321.4033508300781,3.1113553047180176,0.9972786903381348,0.2762711998646855,0.2986249029295305,-76.92960079927335,29.657670559231214,203.8097364052539,19.940815918045622,12.513302451713287,-24.010191102776542,-40.784466703402174,15.436597062525049,-18.766209842448035,-0.3893180451087938,0.09111438978817736,0.9165858539854274,-0.16089070851627027,0.0408832526028958,0.9861251135478399,65.88818390243584,58.5806484776835,4.939304638099634,3.4937824448760795
327383.7815674,6037006.0,809570.3125,1711217311744.0,-512.0,0.3139178454875946,272.0,0.1667688488960266,-15664.0,9.603923797607422,2668.0,3885.70263671875,2564.0,1878.3883056640625,35573.0,321.5547790527344,3.1098902225494385,0.9972786903381348,0.2761748153910492,0.29884262463792566,-77.25689829569528,29.72733079513996,204.58034608692412,19.940815918045622,12.513302451713287,-24.010191102776542,-40.784466703402174,15.436597062525049,-18.766209842448035,-0.3893180451087938,0.09111438978817736,0.9165858539854274,-0.16175626461175058,0.041010748643899045,0.9859782093710387,65.88818390243584,58.57199801006327,4.939304638099634,3.4941401005110473
327383.8822664,6037262.0,809578.125,1711217311744.0,-528.0,0.3237277865409851,288.0,0.17657878994941711,-15696.0,9.623543739318848,2672.0,3891.5283203125,2567.0,1880.5860595703125,35573.0,321.5547790527344,3.1098902225494385,0.993279367685318,0.2765609563782786,0.29858155268100894,-77.36811629501196,29.875050867766554,205.2790600175844,19.940815918045622,12.513302451713287,-24.010191102776542,-40.784466703402174,15.436597062525049,-18.766209842448035,-0.38865430615637714,0.09196316626652967,0.91678274763236,-0.16175626461175058,0.041010748643899045,0.9859782093710387,65.66954539916962,58.57199801006327,4.9223577269157515,3.4941401005110473
327383.9829995,6037518.0,809585.9375,1711217311744.0,-560.0,0.3433476388454437,240.0,0.1471489816904068,-15744.0,9.652973175048828,2656.0,3868.2255859375,2543.0,1863.003662109375,35573.0,321.5547790527344,3.1098902225494385,0.993279367685318,0.27679391811150583,0.2970521394418918,-76.72657991313018,29.962444930654158,203.7822081197242,19.940815918045622,12.513302451713287,-24.010191102776542,-40.784466703402174,15.436597062525049,-18.766209842448035,-0.38865430615637714,0.09196316626652967,0.91678274763236,-0.1600018966883115,0.04264712200754839,0.9861950192738838,65.66954539916962,58.60319315715272,4.9223577269157515,3.4954632105757257
327384.0834799,6037774.0,809593.75,1711217311744.0,-592.0,0.36296749114990234,256.0,0.1569589227437973,-15696.0,9.623543739318848,2671.0,3890.07177734375,2563.0,1877.6556396484375,35573.0,321.5547790527344,3.1098902225494385,0.986558735370636,0.2686811097450531,0.31626478083763176,-180.96688766960557,59.463111709837676,462.1546275729857,-66.3289963660866,-3.3432241556301463,-20.45651822934298,nan,nan,nan,-0.22927578260703793,0.1256126717309357,0.9652222916046573,nan,nan,nan,65.66954539916962,nan,4.9223577269157515,nan
327384.1844784,6038030.0,809601.5625,1711217311744.0,-528.0,0.3237277865409851,304.0,0.18638871610164642,-15744.0,9.652973175048828,2669.0,3887.158935546875,2569.0,1882.05126953125,35573.0,321.5547790527344,3.1098902225494385,0.9740723073482513,0.2841750776011812,0.29981159367643195,-75.91412655401751,30.125070732467275,209.69403895004095,19.940815918045622,12.513302451713287,-24.010191102776542,-40.784466703402174,15.436597062525049,-18.766209842448035,-0.37763464867584967,0.08920502745639251,0.9216477283626167,-0.15249414719168122,0.04374130203559256,0.9873359274170633,65.82577631025681,58.45085992888398,4.929682321505166,3.4871985082555312
327384.2859161,6038286.0,809609.375,1711217311744.0,-544.0,0.3335376977920532,320.0,0.19619865715503693,-15728.0,9.643163681030273,2671.0,3890.07177734375,2578.0,1888.6446533203125,35573.0,321.5547790527344,3.1098902225494385,0.9740723073482513,0.2855763202015954,0.2969446983196883,-71.51434833791113,29.12185424264689,198.9523347022236,19.940815918045622,12.513302451713287,-24.010191102776542,-40.784466703402174,15.436597062525049,-18.766209842448035,-0.37763464867584967,0.08920502745639251,0.9216477283626167,-0.1403452928406497,0.04164269344331388,0.9892265083691694,65.82577631025681,58.84791314003434,4.929682321505166,3.5111424937255977
327384.3871435,6038542.0,809617.1875,1711217311744.0,-544.0,0.3335376977920532,288.0,0.17657878994941711,-15616.0,9.574494361877441,2655.0,3866.769287109375,2550.0,1868.1318359375,35572.0,321.7063293457031,3.1084249019622803,0.9790067076683044,0.29399968738578,0.30238751599152514,-73.78690321360807,30.18226954317786,215.06340859157874,19.940815918045622,12.513302451713287,-24.010191102776542,-40.784466703402174,15.436597062525049,-18.766209842448035,-0.36316533701657294,0.08929533938270044,0.9274358632025005,-0.1403452928406497,0.04164269344331388,0.9892265083691694,65.87298488656455,58.84791314003434,4.927981405993073,3.5111424937255977
327384.4884351,6038798.0,809625.0,1711217311744.0,-528.0,0.3237277865409851,320.0,0.19619865715503693,-15632.0,9.584303855895996,2673.0,3892.984619140625,2571.0,1883.5164794921875,35573.0,321.5547790527344,3.1098902225494385,0.9790067076683044,0.2954686879341158,0.29743609133766635,-69.63591642121281,29.669717984183333,204.49680407756097,19.940815918045622,12.513302451713287,-24.010191102776542,-40.784466703402174,15.436597062525049,-18.766209842448035,-0.36316533701657294,0.08929533938270044,0.9274358632025005,-0.12872467547797098,0.04350910579566636,0.9907254491714403,65.87298488656455,58.38565663958576,4.927981405993073,3.483736221774608
327384.5893969,6039054.0,809632.8125,1711217311744.0,-528.0,0.3237277865409851,288.0,0.17657878994941711,-15648.0,9.594114303588867,2644.0,3850.748779296875,2518.0,1844.6885986328125,35573.0,321.5547790527344,3.1098902225494385,0.9951584041118622,0.30043849525627825,0.3033577634067989,-70.9250446208653,29.774702284009845,214.3447211523388,19.940815918045622,12.513302451713287,-24.010191102776542,-40.784466703402174,15.436597062525049,-18.766209842448035,-0.3545954797240219,0.0848722543790099,0.9311598929270501,-0.12872467547797098,0.04350910579566636,0.9907254491714403,65.73411690413758,58.38565663958576,4.915144423972815,3.483736221774608
327384.6904324,6039310.0,809640.625,1711217311744.0,-496.0,0.3041079044342041,240.0,0.1471489816904068,-15696.0,9.623543739318848,2670.0,3888.615478515625,2550.0,1868.1318359375,35572.0,321.7063293457031,3.1084249019622803,1.0,0.3003544305782147,0.30397041243198286,-70.91398918393395,29.63120769220125,214.22529364298074,19.940815918045622,12.513302451713287,-24.010191102776542,-40.784466703402174,15.436597062525049,-18.766209842448035,-0.3547535265924025,0.08376868088341712,0.9311996260057807,-0.12872467547797098,0.04350910579566636,0.9907254491714403,65.96314666076037,58.38565663958576,4.932780099051014,3.483736221774608
327384.7914795,6039566.0,809648.4375,1711217311744.0,-496.0,0.3041079044342041,288.0,0.17657878994941711,-15616.0,9.574494361877441,2654.0,3865.312744140625,2528.0,1852.0146484375,35572.0,321.7063293457031,3.1084249019622803,1.0,0.3007671249837208,0.303010004042534,-69.73417528930639,29.39489203294722,211.1305051327579,19.940815918045622,12.513302451713287,-24.010191102776542,-40.784466703402174,15.436597062525049,-18.766209842448035,-0.3547535265924025,0.08376868088341712,0.9311996260057807,-0.12542495703391693,0.04327448588989081,0.991158866692926,65.96314666076037,58.72033410566138,4.932780099051014,3.5046783992032653
327384.8924091,6039822.0,809656.25,1711217311744.0,-512.0,0.3139178454875946,256.0,0.1569589227437973,-15632.0,9.584303855895996,2671.0,3890.07177734375,2562.0,1876.923095703125,35572.0,321.7063293457031,3.1084249019622803,1.0,0.30086156077183657,0.3024929665484314,-69.50162725242146,29.41561513500239,210.5259198064973,19.940815918045622,12.513302451713287,-24.010191102776542,-40.784466703402174,15.436597062525049,-18.766209842448035,-0.3547535265924025,0.08376868088341712,0.9311996260057807,-0.12474712321650655,0.04378113259020104,0.9912221585892462,65.96314666076037,58.646787204772906,4.932780099051014,3.4997880180993217
327384.9934235,6040078.0,809664.0625,1711217311744.0,-528.0,0.3237277865409851,240.0,0.1471489816904068,-15648.0,9.594114303588867,2670.0,3888.615478515625,2564.0,1878.3883056640625,35571.0,321.8580627441406,3.106959819793701,0.995431512594223,0.2993761150287274,0.30329701143748644,-69.17012405806499,28.891986449037788,207.7851531661778,19.940815918045622,12.513302451713287,-24.010191102776542,-40.784466703402174,15.436597062525049,-18.766209842448035,-0.3573621960896223,0.08084532128383037,0.9304602596739512,-0.12474712321650655,0.04378113259020104,0.9912221585892462,65.98511041708514,58.646787204772906,4.935239967003593,3.4997880180993217
327385.0941678,6040334.0,809671.875,1711217311744.0,-480.0,0.2942979633808136,224.0,0.1373390555381775,-15696.0,9.623543739318848,2671.0,3890.07177734375,2580.0,1890.10986328125,35571.0,321.8580627441406,3.106959819793701,0.995431512594223,0.2994562797461404,0.30278834093132156,-68.98297577784862,28.926926866312876,207.30379814443614,19.940815918045622,12.513302451713287,-24.010191102776542,-40.784466703402174,15.436597062525049,-18.766209842448035,-0.3573621960896223,0.08084532128383037,0.9304602596739512,-0.12418600476269795,0.04433966443781923,0.9912677894386666,65.98511041708514,59.053115383098245,4.935239967003593,3.523717088157942
327385.194436,6040590.0,809679.6875,1711217311744.0,-496.0,0.3041079044342041,224.0,0.1373390555381775,-15648.0,9.594114303588867,2656.0,3868.2255859375,2542.0,1862.2711181640625,35571.0,321.8580627441406,3.106959819793701,1.0,0.299494554340866,0.3033584926879115,-69.00060240932012,28.826439107340462,207.41636096101865,19.940815918045622,12.513302451713287,-24.010191102776542,-40.784466703402174,15.436597062525049,-18.766209842448035,-0.3573046855803613,0.07994603138876617,0.9305600430533784,-0.12418600476269795,0.04433966443781923,0.9912677894386666,66.13687079203557,59.053115383098245,4.946427554114567,3.523717088157942
327385.295443,6040846.0,809687.5,1711217311744.0,-544.0,0.3335376977920532,224.0,0.1373390555381775,-15712.0,9.633354187011719,2663.0,3878.42041015625,2553.0,1870.3297119140625,35572.0,321.7063293457031,3.1084249019622803,1.0,0.29958803614020535,0.3029225575912734,-68.76646219570942,28.828975063886777,206.81067473388867,19.940815918045622,12.513302451713287,-24.010191102776542,-40.784466703402174,15.436597062525049,-18.766209842448035,-0.3573046855803613,0.07994603138876617,0.9305600430533784,-0.12349116451945379,0.04469486921440478,0.9913386409050825,66.13687079203557,58.88153116814542,4.946427554114567,3.513779398386183
327385.396377,6041102.0,809695.3125,1711217311744.0,-512.0,0.3139178454875946,208.0,0.12752912938594818,-15744.0,9.652973175048828,2669.0,3887.158935546875,2559.0,1874.7252197265625,35571.0,321.8580627441406,3.106959819793701,0.9957293272018433,0.3004071416864957,0.30401346261649786,-68.96871941669627,28.817598514658343,208.4122492888651,19.940815918045622,12.513302451713287,-24.010191102776542,-40.784466703402174,15.436597062525049,-18.766209842448035,-0.3558932142336492,0.07902570036198325,0.9311793375847317,-0.12349116451945379,0.04469486921440478,0.9913386409050825,66.11454749915917,58.88153116814542,4.9446373096501794,3.513779398386183
327385.4969396,6041358.0,809703.125,1711217311744.0,-560.0,0.3433476388454437,240.0,0.1471489816904068,-15712.0,9.633354187011719,2669.0,3887.158935546875,2570.0,1882.783935546875,35571.0,321.8580627441406,3.106959819793701,0.9871558845043182,0.30072644586161124,0.3045625586427939,-69.05028972375894,28.78908797275893,209.05168276213644,19.940815918045622,12.513302451713287,-24.010191102776542,-40.784466703402174,15.436597062525049,-18.766209842448035,-0.35534430876015594,0.0784623488662257,0.9314365689847921,-0.12349116451945379,0.04469486921440478,0.9913386409050825,66.13347729152996,58.88153116814542,4.945886933621111,3.513779398386183
327385.597514,6041614.0,809710.9375,1711217311744.0,-528.0,0.3237277865409851,256.0,0.1569589227437973,-15712.0,9.633354187011719,2655.0,3866.769287109375,2544.0,1863.7362060546875,35571.0,321.8580627441406,3.106959819793701,0.9871558845043182,0.30088343766451375,0.3039792691815021,-68.6138081202323,28.74665631566404,207.9008152378894,19.940815918045622,12.513302451713287,-24.010191102776542,-40.78299978665326,15.509176150863217,-18.600084976252283,-0.35534430876015594,0.0784623488662257,0.9314365689847921,-0.12232991174310408,0.04469024018471158,0.9914828163539481,66.13347729152996,58.78873381380783,4.945886933621111,3.512858570829514
327385.6993387,6041870.0,809718.75,1711217311744.0,-528.0,0.3237277865409851,272.0,0.1667688488960266,-15664.0,9.603923797607422,2660.0,3874.05126953125,2540.0,1860.805908203125,35571.0,321.8580627441406,3.106959819793701,1.0,0.30119740342131973,0.30450863248547755,-68.69284538580705,28.720628954336107,208.52615444072208,19.940815918045622,12.513302451713287,-24.010191102776542,-40.78299978665326,15.509176150863217,-18.600084976252283,-0.35480446199824267,0.07792685293523735,0.9316872862381171,-0.12232991174310408,0.04469024018471158,0.9914828163539481,66.15097230482107,58.78873381380783,4.947312936704901,3.512858570829514
327385.8004409,6042126.0,809726.5625,1711217311744.0,-528.0,0.3237277865409851,336.0,0.20600858330726624,-15648.0,9.594114303588867,2670.0,3888.615478515625,2557.0,1873.2601318359375,35570.0,322.0099182128906,3.105494499206543,1.0,0.3013471258632293,0.30391186206678,-68.31045829369998,28.701692677939285,207.52708036494516,19.940815918045622,12.513302451713287,-24.010191102776542,-40.78299978665326,15.509176150863217,-18.600084976252283,-0.35480446199824267,0.07792685293523735,0.9316872862381171,-0.12119877268429874,0.04507305499187224,0.9916043955194628,66.15097230482107,58.87095784249503,4.947312936704901,3.4769340686374286
327385.9013929,6042382.0,809734.375,1711217311744.0,-544.0,0.3335376977920532,240.0,0.1471489816904068,-15712.0,9.633354187011719,2670.0,3888.615478515625,2567.0,1880.5860595703125,35570.0,322.0099182128906,3.105494499206543,1.0,0.3019191373863701,0.30505324998656014,-68.4558118780653,28.6198257150958,208.6777357970513,19.940815918045622,12.513302451713287,-24.010191102776542,-40.78299978665326,15.509176150863217,-18.600084976252283,-0.35382329533029316,0.07665944217213565,0.9321654389685713,-0.12119877268429874,0.04507305499187224,0.9916043955194628,66.293984803315,58.87095784249503,4.957799210540928,3.4769340686374286
327386.0023191,6042638.0,809742.1875,1711217311744.0,-544.0,0.3335376977920532,304.0,0.18638871610164642,-15712.0,9.633354187011719,2648.0,3856.574462890625,2526.0,1850.5494384765625,35569.0,322.1618957519531,3.104029417037964,1.0,0.3019838254029771,0.3053234048019129,-68.23557994688508,28.483439190993337,208.09013743692088,19.940815918045622,12.513302451713287,-24.010191102776542,-40.78299978665326,15.509176150863217,-18.600084976252283,-0.35382329533029316,0.07665944217213565,0.9321654389685713,-0.12057828943619753,0.04424698173057229,0.9917172382914268,66.293984803315,59.2795635463443,4.957799210540928,3.5004864665685966
327386.1025857,6042894.0,809750.0,1711217311744.0,-544.0,0.3335376977920532,240.0,0.1471489816904068,-15680.0,9.613734245300293,2663.0,3878.42041015625,2540.0,1860.805908203125,35570.0,322.0099182128906,3.105494499206543,1.0,0.3019036440942483,0.3039369581165827,-68.19579738567548,28.731315982344974,207.8382509673545,19.940815918045622,12.513302451713287,-24.010191102776542,-40.78299978665326,15.509176150863217,-18.600084976252283,-0.35394044536426067,0.07885939218212716,0.9319374213969596,-0.12057828943619753,0.04424698173057229,0.9917172382914268,66.36119163580315,59.2795635463443,4.9629881113266,3.5004864665685966
327386.2034578,6043150.0,809757.8125,1711217311744.0,-528.0,0.3237277865409851,256.0,0.1569589227437973,-15680.0,9.613734245300293,2673.0,3892.984619140625,2566.0,1879.853515625,35569.0,322.1618957519531,3.104029417037964,1.0,0.3021113014606612,0.3030626062742343,-67.6780763583603,28.717107278668177,206.48299972933123,19.940815918045622,12.513302451713287,-24.010191102776542,-40.78299978665326,15.509176150863217,-18.600084976252283,-0.35394044536426067,0.07885939218212716,0.9319374213969596,-0.1190268277917847,0.04486816273352287,0.9918767374219151,66.36119163580315,58.81799299234786,4.9629881113266,3.473126615243367
327386.3044112,6043406.0,809765.625,1711217311744.0,-480.0,0.2942979633808136,256.0,0.1569589227437973,-15664.0,9.603923797607422,2671.0,3890.07177734375,2574.0,1885.7142333984375,35569.0,322.1618957519531,3.104029417037964,0.9991336762905121,0.30265975475411977,0.3037729444656643,-67.8075041576314,28.712960578937164,207.54651707354571,19.940815918045622,12.513302451713287,-24.010191102776542,-40.78299978665326,15.509176150863217,-18.600084976252283,-0.35299333647774994,0.07827818539368776,0.9323455529436376,-0.1190268277917847,0.04486816273352287,0.9918767374219151,66.39879705523956,58.81799299234786,4.965964774225283,3.473126615243367
327386.4054895,6043662.0,809773.4375,1711217311744.0,-480.0,0.2942979633808136,224.0,0.1373390555381775,-15744.0,9.652973175048828,2657.0,3869.68212890625,2552.0,1869.5970458984375,35568.0,322.3140563964844,3.1025640964508057,0.9991336762905121,0.3029696044029828,0.301414616846035,-67.15149289652129,28.946597626856196,205.84373531542437,19.940815918045622,12.513302451713287,-24.010191102776542,-40.78299978665326,15.509176150863217,-18.600084976252283,-0.35299333647774994,0.07827818539368776,0.9323455529436376,-0.11698239100638089,0.04777671838232702,0.9919841255660524,66.39879705523956,58.820297346290616,4.965964774225283,3.473922395866411
327386.5064924,6043918.0,809781.25,1711217311744.0,-560.0,0.3433476388454437,240.0,0.1471489816904068,-15696.0,9.623543739318848,2662.0,3876.964111328125,2544.0,1863.7362060546875,35569.0,322.1618957519531,3.104029417037964,0.976100504398346,0.30281412035074934,0.29969396340321874,-67.09236402339451,29.23664777729618,205.434575538557,19.940815918045622,12.513302451713287,-24.010191102776542,-40.78299978665326,15.509176150863217,-18.600084976252283,-0.35323750913390445,0.08094615836962363,0.9320252043727544,-0.11698239100638089,0.04777671838232702,0.9919841255660524,66.4518726733105,58.820297346290616,4.970012844057983,3.473922395866411
327386.607442,6044174.0,809789.0625,1711217311744.0,-480.0,0.2942979633808136,272.0,0.1667688488960266,-15728.0,9.643163681030273,2670.0,3888.615478515625,2565.0,1879.120849609375,35568.0,322.3140563964844,3.1025640964508057,0.976100504398346,0.30245175320564943,0.30128719076396415,-67.9793559685458,29.249828189156297,207.76054687406102,19.940815918045622,12.513302451713287,-24.010191102776542,-40.78299978665326,15.509176150863217,-18.600084976252283,-0.35323750913390445,0.08094615836962363,0.9320252043727544,-0.11966453347859284,0.04656546343923069,0.9917217639247615,66.4518726733105,59.30660672158113,4.970012844057983,3.502491863786396
327386.7077237,6044430.0,809796.875,1711217311744.0,-512.0,0.3139178454875946,256.0,0.1569589227437973,-15744.0,9.652973175048828,2669.0,3887.158935546875,2564.0,1878.3883056640625,35568.0,322.3140563964844,3.1025640964508057,1.0,0.30215142535054307,0.3004278974516623,-67.9004182676593,29.340988219010214,207.14058688075875,19.940815918045622,12.513302451713287,-24.010191102776542,-40.78299978665326,15.509176150863217,-18.600084976252283,-0.353748655245718,0.08203944000740732,0.9317357024366497,-0.11966453347859284,0.04656546343923069,0.9917217639247615,66.5862691775822,59.30660672158113,4.980513801616685,3.502491863786396
327386.8084403,6044686.0,809804.6875,1711217311744.0,-512.0,0.3139178454875946,224.0,0.1373390555381775,-15696.0,9.623543739318848,2656.0,3868.2255859375,2543.0,1863.003662109375,35568.0,322.3140563964844,3.1025640964508057,1.0,0.3023260835728891,0.29992481452818165,-67.44410609969425,29.26967948634006,205.94109894036586,19.940815918045622,12.513302451713287,-24.010191102776542,-40.78299978665326,15.509176150863217,-18.600084976252283,-0.353748655245718,0.08203944000740732,0.9317357024366497,-0.1183029282320886,0.04664979462537137,0.9918811490461565,66.5862691775822,59.24740697435356,4.980513801616685,3.498395573377698
327386.9094136,6044942.0,809812.5,1711217311744.0,-480.0,0.2942979633808136,256.0,0.1569589227437973,-15664.0,9.603923797607422,2671.0,3890.07177734375,2561.0,1876.1904296875,35568.0,322.3140563964844,3.1025640964508057,1.0,0.30234786673564623,0.3007334045610691,-67.29711963666205,29.0497958507246,205.53889230102544,19.940815918045622,12.513302451713287,-24.010191102776542,-40.78299978665326,15.509176150863217,-18.600084976252283,-0.353748655245718,0.08203944000740732,0.9317357024366497,-0.11791036320577776,0.04502003910713641,0.992003196732487,66.5862691775822,59.411746398598794,4.980513801616685,3.5078267860123358
327387.010514,6045198.0,809820.3125,1711217311744.0,-496.0,0.3041079044342041,288.0,0.17657878994941711,-15664.0,9.603923797607422,2662.0,3876.964111328125,2556.0,1872.5274658203125,35567.0,322.4663391113281,3.1010990142822266,1.0,0.3034169695538969,0.30037026889979157,-67.51875514173545,29.380771661936265,207.47472500653498,19.940815918045622,12.513302451713287,-24.010191102776542,-40.78299978665326,15.509176150863217,-18.600084976252283,-0.351872268044221,0.0837905377636461,0.9322902191714203,-0.11791036320577776,0.04502003910713641,0.992003196732487,66.53587444240107,59.411746398598794,4.976436910697774,3.5078267860123358
327387.1123357,6045454.0,809828.125,1711217311744.0,-496.0,0.3041079044342041,288.0,0.17657878994941711,-15680.0,9.613734245300293,2670.0,3888.615478515625,2562.0,1876.923095703125,35567.0,322.4663391113281,3.1010990142822266,1.0,0.3035042948508332,0.2998637586013335,-67.31859257558473,29.40755476078992,206.95029584369914,19.940815918045622,12.513302451713287,-24.010191102776542,-40.78299978665326,15.509176150863217,-18.600084976252283,-0.351872268044221,0.0837905377636461,0.9322902191714203,-0.11729823450294571,0.0455446187773135,0.9920518191520648,66.53587444240107,59.38965812639993,4.976436910697774,3.506264758776927
327387.2133438,6045710.0,809835.9375,1711217311744.0,-528.0,0.3237277865409851,304.0,0.18638871610164642,-15744.0,9.652973175048828,2661.0,3875.5078125,2555.0,1871.794921875,35567.0,322.4663391113281,3.1010990142822266,1.0,0.30448644287428267,0.3005817019803739,-67.53982359950236,29.51306433007122,208.82777880422293,19.940815918045622,12.513302451713287,-24.010191102776542,-40.78299978665326,15.509176150863217,-18.600084976252283,-0.3501626899911375,0.08366638005419721,0.9329448147595855,-0.11729823450294571,0.0455446187773135,0.9920518191520648,66.58560510768369,59.38965812639993,4.980799734157564,3.506264758776927
327387.3144042,6045966.0,809843.75,1711217311744.0,-480.0,0.2942979633808136,272.0,0.1667688488960266,-15728.0,9.643163681030273,2662.0,3876.964111328125,2547.0,1865.93408203125,35566.0,322.6187744140625,3.0996336936950684,1.0,0.3046478002580125,0.30010885295965184,-67.12223833207642,29.449621699101215,207.71778940202933,19.940815918045622,12.513302451713287,-24.010191102776542,-40.78299978665326,15.509176150863217,-18.600084976252283,-0.3501626899911375,0.08366638005419721,0.9329448147595855,-0.11605487114440885,0.04564570996701295,0.9921933964934768,66.58560510768369,59.429676955946846,4.980799734157564,3.508657256658795
327387.4154112,6046222.0,809851.5625,1711217311744.0,-480.0,0.2942979633808136,256.0,0.1569589227437973,-15728.0,9.643163681030273,2672.0,3891.5283203125,2563.0,1877.6556396484375,35566.0,322.6187744140625,3.0996336936950684,0.9832441210746765,0.30478841103267795,0.29969980810887253,-67.14569325671599,29.56324098156703,207.9485741820808,19.940815918045622,12.513302451713287,-24.010191102776542,-40.78299978665326,15.509176150863217,-18.600084976252283,-0.3499090689428552,0.084492730276985,0.9329654988271994,-0.11605487114440885,0.04564570996701295,0.9921933964934768,66.74311137768773,59.429676955946846,4.992705193525341,3.508657256658795
327387.5164752,6046478.0,809859.375,1711217311744.0,-496.0,0.3041079044342041,272.0,0.1667688488960266,-15728.0,9.643163681030273,2664.0,3879.876953125,2554.0,1871.062255859375,35567.0,322.4663391113281,3.1010990142822266,0.9832441210746765,0.3048489750439084,0.30041119911955994,-66.89841712734741,29.322525022243383,207.27395230809734,19.940815918045622,12.513302451713287,-24.010191102776542,-40.78299978665326,15.509176150863217,-18.600084976252283,-0.3499090689428552,0.084492730276985,0.9329654988271994,-0.11536395282280286,0.044011006235407296,0.9923478169065747,66.74311137768773,59.76050786944853,4.992705193525341,3.528164937243747
327387.6174472,6046734.0,809867.1875,1711217311744.0,-496.0,0.3041079044342041,272.0,0.1667688488960266,-15648.0,9.594114303588867,2656.0,3868.2255859375,2533.0,1855.6776123046875,35566.0,322.6187744140625,3.0996336936950684,1.0,0.3051786280532466,0.30102913027716005,-66.97686624038994,29.284978856372227,207.9294355223389,19.940815918045622,12.513302451713287,-24.010191102776542,-40.78299978665326,15.509176150863217,-18.600084976252283,-0.3493413915814973,0.08382939781077106,0.9332380319032151,-0.11536395282280286,0.044011006235407296,0.9923478169065747,66.8701167930079,59.76050786944853,5.002807478916958,3.528164937243747
327387.7182426,6046990.0,809875.0,1711217311744.0,-512.0,0.3139178454875946,240.0,0.1471489816904068,-15696.0,9.623543739318848,2663.0,3878.42041015625,2547.0,1865.93408203125,35566.0,322.6187744140625,3.0996336936950684,1.0,0.3050928853301915,0.3014589104663915,-67.17891681919969,29.27422240342643,208.46439545170685,19.940815918045622,12.513302451713287,-24.010191102776542,-40.78299978665326,15.509176150863217,-18.600084976252283,-0.3493413915814973,0.08382939781077106,0.9332380319032151,-0.11597802191723158,0.04362012333904309,0.9922934965382232,66.8701167930079,59.72257599212345,5.002807478916958,3.526013065159828
327387.8190683,6047246.0,809882.8125,1711217311744.0,-480.0,0.2942979633808136,240.0,0.1471489816904068,-15744.0,9.652973175048828,2671.0,3890.07177734375,2565.0,1879.120849609375,35565.0,322.7713317871094,3.0981686115264893,0.9767617285251617,0.3045714114607421,0.2998873590512672,-67.04478267626854,29.447817461191377,207.38074311287528,19.940815918045622,12.513302451713287,-24.010191102776542,-40.78299978665326,15.509176150863217,-18.600084976252283,-0.35022900484967356,0.08585841941148367,0.9327207384732953,-0.11597802191723158,0.04362012333904309,0.9922934965382232,66.85846645359914,59.72257599212345,5.001825273825512,3.526013065159828
327387.920194,6047502.0,809890.625,1711217311744.0,-528.0,0.3237277865409851,272.0,0.1667688488960266,-15728.0,9.643163681030273,2670.0,3888.615478515625,2573.0,1884.981689453125,35565.0,322.7713317871094,3.0981686115264893,0.9767617285251617,0.3047401554259143,0.29937432350436743,-66.61592589126157,29.386850335686752,206.24184278389447,19.940815918045622,12.513302451713287,-24.010191102776542,-40.78299978665326,15.509176150863217,-18.600084976252283,-0.35022900484967356,0.08585841941148367,0.9327207384732953,-0.1146835691754225,0.04376067813962015,0.9924377471710487,66.85846645359914,59.911935586195504,5.001825273825512,3.5368882564990156
327388.0204757,6047758.0,809898.4375,1711217311744.0,-544.0,0.3335376977920532,320.0,0.19619865715503693,-15696.0,9.623543739318848,2654.0,3865.312744140625,2539.0,1860.0732421875,35565.0,322.7713317871094,3.0981686115264893,1.0,0.3055467589084614,0.3009143304200407,-66.80615638684944,29.29009669805219,207.83946529414416,19.940815918045622,12.513302451713287,-24.010191102776542,-40.78299978665326,15.509176150863217,-18.600084976252283,-0.3488408575818519,0.0841898027184161,0.93339280755735,-0.1146835691754225,0.04376067813962015,0.9924377471710487,67.13776974781177,59.911935586195504,5.023515522387996,3.5368882564990156
327388.1214597,6048014.0,809906.25,1711217311744.0,-528.0,0.3237277865409851,240.0,0.1471489816904068,-15696.0,9.623543739318848,2664.0,3879.876953125,2547.0,1865.93408203125,35565.0,322.7713317871094,3.0981686115264893,1.0,0.30535214909474273,0.3028334095716241,-67.16547344915554,29.033751326009273,208.77158033110345,19.940815918045622,12.513302451713287,-24.010191102776542,-40.78299978665326,15.509176150863217,-18.600084976252283,-0.3488408575818519,0.0841898027184161,0.93339280755735,-0.11583544514906177,0.04109518387276595,0.9924179238151546,67.13776974781177,60.01958998043271,5.023515522387996,3.543099493984227
327388.2216742,6048270.0,809914.0625,1711217311744.0,-496.0,0.3041079044342041,272.0,0.1667688488960266,-15632.0,9.584303855895996,2669.0,3887.158935546875,2556.0,1872.5274658203125,35564.0,322.924072265625,3.096703290939331,0.9880068898200989,0.305022144251838,0.3027949272371998,-67.09498677382847,28.960435901341945,208.15329875910595,19.940815918045622,12.513302451713287,-24.010191102776542,-40.78299978665326,15.509176150863217,-18.600084976252283,-0.34941950534941707,0.08389796809459513,0.9332026254951102,-0.11583544514906177,0.04109518387276595,0.9924179238151546,67.02437074756807,60.01958998043271,5.014797382949145,3.543099493984227
327388.3225165,6048526.0,809921.875,1711217311744.0,-480.0,0.2942979633808136,272.0,0.1667688488960266,-15648.0,9.594114303588867,2671.0,3890.07177734375,2576.0,1887.179443359375,35564.0,322.924072265625,3.096703290939331,0.9880068898200989,0.30462034814826494,0.30534627077169496,-67.99484846364717,28.772471678736785,210.52137312135602,19.940815918045622,12.513302451713287,-24.010191102776542,-40.78299978665326,15.509176150863217,-18.600084976252283,-0.34941950534941707,0.08389796809459513,0.9332026254951102,-0.11857545698515994,0.03824545129832941,0.9922082172889658,67.02437074756807,60.2370343070286,5.014797382949145,3.5552042048621804
327388.4234916,6048782.0,809929.6875,1711217311744.0,-496.0,0.3041079044342041,240.0,0.1471489816904068,-15696.0,9.623543739318848,2662.0,3876.964111328125,2555.0,1871.794921875,35564.0,322.924072265625,3.096703290939331,1.0,0.30497371955105457,0.30572701022951587,-68.07917735332742,28.78488878691939,211.22328784785736,19.940815918045622,12.513302451713287,-24.010191102776542,-40.78299978665326,15.509176150863217,-18.600084976252283,-0.34880544293727866,0.08364967034046042,0.9334546028753948,-0.11857545698515994,0.03824545129832941,0.9922082172889658,67.1297919311312,60.2370343070286,5.022601264734195,3.5552042048621804
327388.5243636,6049038.0,809937.5,1711217311744.0,-528.0,0.3237277865409851,272.0,0.1667688488960266,-15680.0,9.613734245300293,2661.0,3875.5078125,2553.0,1870.3297119140625,35563.0,323.0769348144531,3.095238208770752,1.0,0.3051259546214037,0.30496295936669315,-67.71315650477175,28.80692557991985,210.2533294727054,19.940815918045622,12.513302451713287,-24.010191102776542,-40.78299978665326,15.509176150863217,-18.600084976252283,-0.34880544293727866,0.08364967034046042,0.9334546028753948,-0.11748598388353144,0.03894492607989112,0.9923106047622136,67.1297919311312,59.95766717886488,5.022601264734195,3.5391035904784487
327388.6253629,6049294.0,809945.3125,1711217311744.0,-576.0,0.35315757989883423,272.0,0.1667688488960266,-15664.0,9.603923797607422,2673.0,3892.984619140625,2567.0,1880.5860595703125,35563.0,323.0769348144531,3.095238208770752,1.0,0.3044308039725855,0.3050883226292922,-67.56413521849795,28.61331264592568,208.95242136016543,19.940815918045622,12.513302451713287,-24.010191102776542,-40.78299978665326,15.509176150863217,-18.600084976252283,-0.35002836073033916,0.08269564878149635,0.9330817629538363,-0.11748598388353144,0.03894492607989112,0.9923106047622136,67.21105083237477,59.95766717886488,5.0289645749513445,3.5391035904784487
327388.7263864,6049550.0,809953.125,1711217311744.0,-544.0,0.3335376977920532,288.0,0.17657878994941711,-15680.0,9.613734245300293,2671.0,3890.07177734375,2580.0,1890.10986328125,35563.0,323.0769348144531,3.095238208770752,1.0,0.3042935017150515,0.3054194307435435,-67.93123393487268,28.681446560415758,209.92979434402173,19.940815918045622,12.513302451713287,-24.010191102776542,-40.78299978665326,15.509176150863217,-18.600084976252283,-0.35002836073033916,0.08269564878149635,0.9330817629538363,-0.1185639130297697,0.038991180769806164,0.9921805714431448,67.21105083237477,60.13430758106107,5.0289645749513445,3.549353579735702
327388.8272724,6049806.0,809960.9375,1711217311744.0,-528.0,0.3237277865409851,256.0,0.1569589227437973,-15680.0,9.613734245300293,2657.0,3869.68212890625,2549.0,1867.3992919921875,35562.0,323.22991943359375,3.0937728881835938,1.0,0.3046996541500352,0.3055267556537664,-68.02256964396786,28.75982003866848,210.70835020421094,19.940815918045622,12.513302451713287,-24.010191102776542,-40.78299978665326,15.509176150863217,-18.600084976252283,-0.3493169951118813,0.0829551795797334,0.9333252782963183,-0.1185639130297697,0.038991180769806164,0.9921805714431448,67.40080014294375,60.13430758106107,5.043370108948318,3.549353579735702
327388.9280706,6050062.0,809968.75,1711217311744.0,-480.0,0.2942979633808136,272.0,0.1667688488960266,-15712.0,9.633354187011719,2664.0,3879.876953125,2550.0,1868.1318359375,35563.0,323.0769348144531,3.095238208770752,1.0,0.3049058509962702,0.3054868997105378,-67.42238781872084,28.545046413148143,209.09732303620387,19.940815918045622,12.513302451713287,-24.010191102776542,-40.78299978665326,15.509176150863217,-18.600084976252283,-0.3493169951118813,0.0829551795797334,0.9333252782963183,-0.11683023300518058,0.03806159422485889,0.9924222950443108,67.40080014294375,60.154583226126775,5.043370108948318,3.550706988869563
327389.0283856,6050318.0,809976.5625,1711217311744.0,-512.0,0.3139178454875946,256.0,0.1569589227437973,-15680.0,9.613734245300293,2670.0,3888.615478515625,2562.0,1876.923095703125,35562.0,323.22991943359375,3.0937728881835938,1.0,0.30487412832236965,0.30591461333722103,-67.42216071665813,28.45457325098682,209.0690984095582,19.940815918045622,12.513302451713287,-24.010191102776542,-40.78299978665326,15.509176150863217,-18.600084976252283,-0.34938045897771086,0.08221587969631991,0.9333669396385778,-0.11683023300518058,0.03806159422485889,0.9924222950443108,67.32173208002864,60.154583226126775,5.037494781028575,3.550706988869563
327389.128617,6050574.0,809984.375,1711217311744.0,-528.0,0.3237277865409851,240.0,0.1471489816904068,-15600.0,9.56468391418457,2664.0,3879.876953125,2554.0,1871.062255859375,35562.0,323.22991943359375,3.0937728881835938,1.0,0.30513757793897317,0.30445968993462824,-66.8154034508289,28.52669839930274,207.46697026779322,19.940815918045622,12.513302451713287,-24.010191102776542,-40.78299978665326,15.509176150863217,-18.600084976252283,-0.34938045897771086,0.08221587969631991,0.9333669396385778,-0.11497833668486654,0.03951975351607392,0.9925815690285661,67.32173208002864,60.03474381431886,5.037494781028575,3.5431121848030913
327389.2294575,6050830.0,809992.1875,1711217311744.0,-528.0,0.3237277865409851,240.0,0.1471489816904068,-15680.0,9.613734245300293,2656.0,3868.2255859375,2535.0,1857.142822265625,35562.0,323.22991943359375,3.0937728881835938,1.0,0.3046637802803054,0.3042894472011023,-66.71461607447104,28.44625018283292,206.58279239068432,19.940815918045622,12.513302451713287,-24.010191102776542,-40.78299978665326,15.509176150863217,-18.600084976252283,-0.3502079167817429,0.08198754292497727,0.9330768766980119,-0.11497833668486654,0.03951975351607392,0.9925815690285661,67.37071181839998,60.03474381431886,5.0411096989207005,3.5431121848030913
327389.3296638,6051086.0,810000.0,1711217311744.0,-480.0,0.2942979633808136,256.0,0.1569589227437973,-15648.0,9.594114303588867,2673.0,3892.984619140625,2560.0,1875.4578857421875,35561.0,323.3830871582031,3.0923078060150146,1.0,0.3045862585180598,0.3051173810620428,-66.84967044812754,28.32815553378358,206.92922758735997,19.940815918045622,12.513302451713287,-24.010191102776542,-40.78299978665326,15.509176150863217,-18.600084976252283,-0.3502079167817429,0.08198754292497727,0.9330768766980119,-0.11542067375903003,0.03833847762078573,0.9925765608771606,67.37071181839998,60.25463483423626,5.0411096989207005,3.556448860523128
327389.4304519,6051342.0,810007.8125,1711217311744.0,-576.0,0.35315757989883423,240.0,0.1471489816904068,-15664.0,9.603923797607422,2666.0,3882.789794921875,2562.0,1876.923095703125,35561.0,323.3830871582031,3.0923078060150146,1.0,0.3035333630855354,0.3048513542369229,-66.62864229952939,28.13105819689215,204.99062842153637,19.940815918045622,12.513302451713287,-24.010191102776542,-40.78299978665326,15.509176150863217,-18.600084976252283,-0.35204570445102645,0.08129630412945273,0.9324455656565009,-0.11542067375903003,0.03833847762078573,0.9925765608771606,67.4350839389749,60.25463483423626,5.046209040746468,3.556448860523128
327389.5313937,6051598.0,810015.625,1711217311744.0,-544.0,0.3335376977920532,240.0,0.1471489816904068,-15648.0,9.594114303588867,2670.0,3888.615478515625,2566.0,1879.853515625,35561.0,323.3830871582031,3.0923078060150146,1.0,0.3036670538876444,0.30470720010787566,-66.2648813529216,28.025253207231692,204.0247262377199,19.940815918045622,12.513302451713287,-24.010191102776542,-40.78299978665326,15.509176150863217,-18.600084976252283,-0.35204570445102645,0.08129630412945273,0.9324455656565009,-0.1143209231955698,0.0379546646696101,0.9927185754026816,67.4350839389749,60.17173016220999,5.046209040746468,3.5518612674623626
327389.6324748,6051854.0,810023.4375,1711217311744.0,-496.0,0.3041079044342041,288.0,0.17657878994941711,-15696.0,9.623543739318848,2655.0,3866.769287109375,2549.0,1867.3992919921875,35560.0,323.536376953125,3.0908424854278564,1.0,0.3038684192008538,0.30490331314196684,-66.30822386144614,28.034810991290108,204.39985593458982,19.940815918045622,12.513302451713287,-24.010191102776542,-40.78299978665326,15.509176150863217,-18.600084976252283,-0.3516973468089628,0.08118931955511531,0.9325863341469859,-0.1143209231955698,0.0379546646696101,0.9927185754026816,67.48062652690074,60.17173016220999,5.0495751015886015,3.5518612674623626
327389.7334291,6052110.0,810031.25,1711217311744.0,-496.0,0.3041079044342041,256.0,0.1569589227437973,-15680.0,9.613734245300293,2660.0,3874.05126953125,2536.0,1857.87548828125,35560.0,323.536376953125,3.0908424854278564,1.0,0.3037832768665729,0.305039165711285,-66.53518128420077,28.091530237000672,205.00234542243854,19.940815918045622,12.513302451713287,-24.010191102776542,-40.78299978665326,15.509176150863217,-18.600084976252283,-0.3516973468089628,0.08118931955511531,0.9325863341469859,-0.1150091052008906,0.0381156102811945,0.9926329160237344,67.48062652690074,60.51320829223699,5.0495751015886015,3.5714599022949525
327389.8344502,6052366.0,810039.0625,1711217311744.0,-544.0,0.3335376977920532,272.0,0.1667688488960266,-15648.0,9.594114303588867,2669.0,3887.158935546875,2560.0,1875.4578857421875,35559.0,323.6898193359375,3.0893774032592773,0.9848016500473022,0.3039986800863765,0.3050524810684342,-66.5792986934492,28.13932398723771,205.39325753505014,19.940815918045622,12.513302451713287,-24.010191102776542,-40.78299978665326,15.509176150863217,-18.600084976252283,-0.35132091721192327,0.08139832730712677,0.9327099899974134,-0.1150091052008906,0.0381156102811945,0.9926329160237344,67.56966382089166,60.51320829223699,5.056329535772998,3.5714599022949525
327389.9363129,6052622.0,810046.875,1711217311744.0,-544.0,0.3335376977920532,288.0,0.17657878994941711,-15664.0,9.603923797607422,2671.0,3890.07177734375,2569.0,1882.05126953125,35559.0,323.6898193359375,3.0893774032592773,0.9848016500473022,0.304058954285312,0.30361169281174705,-66.55776612018701,28.422567027386076,205.3618981419679,19.940815918045622,12.513302451713287,-24.010191102776542,-40.78299978665326,15.509176150863217,-18.600084976252283,-0.35132091721192327,0.08139832730712677,0.9327099899974134,-0.11487112296588559,0.04053420445018528,0.992553073330664,67.56966382089166,60.346432606277475,5.056329535772998,3.561838616987219
327390.0373569,6052878.0,810054.6875,1711217311744.0,-528.0,0.3237277865409851,224.0,0.1373390555381775,-15712.0,9.633354187011719,2655.0,3866.769287109375,2551.0,1868.864501953125,35559.0,323.6898193359375,3.0893774032592773,0.9890937805175781,0.3043789278915433,0.30415434818791554,-66.63143653582527,28.3948656778335,205.98269708732798,19.940815918045622,12.513302451713287,-24.010191102776542,-40.78299978665326,15.509176150863217,-18.600084976252283,-0.3507704242732172,0.08084810671822422,0.9329650010023237,-0.11487112296588559,0.04053420445018528,0.992553073330664,67.5973616847987,60.346432606277475,5.058754272942959,3.561838616987219
327390.138388,6053134.0,810062.5,1711217311744.0,-528.0,0.3237277865409851,272.0,0.1667688488960266,-15616.0,9.574494361877441,2654.0,3865.312744140625,2528.0,1852.0146484375,35558.0,323.8434143066406,3.087912082672119,0.9890937805175781,0.30412921056554154,0.30478672040697874,-67.2820234696072,28.508695550677093,207.7105970572923,19.940815918045622,12.513302451713287,-24.010191102776542,-40.78299978665326,15.509176150863217,-18.600084976252283,-0.3507704242732172,0.08084810671822422,0.9329650010023237,-0.1168246352535935,0.04056330938520664,0.9923238496224832,67.5973616847987,60.59991618747304,5.058754272942959,3.576578137336413
327390.2393703,6053390.0,810070.3125,1711217311744.0,-528.0,0.3237277865409851,272.0,0.1667688488960266,-15712.0,9.633354187011719,2670.0,3888.615478515625,2556.0,1872.5274658203125,35558.0,323.8434143066406,3.087912082672119,0.9966393709182739,0.3047822437492558,0.30544677342459225,-67.43164930242266,28.538393848793724,208.97560631266163,19.940815918045622,12.513302451713287,-24.010191102776542,-40.78299978665326,15.509176150863217,-18.600084976252283,-0.3496369283468412,0.080461372178145,0.933423797598602,-0.1168246352535935,0.04056330938520664,0.9923238496224832,67.53675792731356,60.59991618747304,5.053870309868393,3.576578137336413
327390.340209,6053646.0,810078.125,1711217311744.0,-544.0,0.3335376977920532,288.0,0.17657878994941711,-15744.0,9.652973175048828,2671.0,3890.07177734375,2568.0,1881.3187255859375,35558.0,323.8434143066406,3.087912082672119,0.9966393709182739,0.30487175874102573,0.3045867888818289,-67.26201509200459,28.651743811872322,208.53596607772823,19.940815918045622,12.513302451713287,-24.010191102776542,-40.78299978665326,15.509176150863217,-18.600084976252283,-0.3496369283468412,0.080461372178145,0.933423797598602,-0.11628624474449953,0.041745439240777754,0.9923380611393562,67.53675792731356,60.55685011446448,5.053870309868393,3.574416161712591
327390.4412882,6053902.0,810085.9375,1711217311744.0,-576.0,0.35315757989883423,304.0,0.18638871610164642,-15712.0,9.633354187011719,2657.0,3869.68212890625,2549.0,1867.3992919921875,35558.0,323.8434143066406,3.087912082672119,1.0,0.3044809026344719,0.3040948491135741,-67.17150926891159,28.652218503605486,207.77301883649704,19.940815918045622,12.513302451713287,-24.010191102776542,-40.78299978665326,15.509176150863217,-18.600084976252283,-0.3503138348845159,0.0808522673002852,0.9331361786796756,-0.11628624474449953,0.041745439240777754,0.9923380611393562,67.58251923940168,60.55685011446448,5.0577678026928385,3.574416161712591
327390.5423799,6054158.0,810093.75,1711217311744.0,-544.0,0.3335376977920532,320.0,0.19619865715503693,-15680.0,9.613734245300293,2657.0,3869.68212890625,2535.0,1857.142822265625,35557.0,323.9971618652344,3.08644700050354,1.0,0.30463560433588316,0.3030658235851784,-66.83379279490532,28.735286686089772,206.88698393996074,19.940815918045622,12.513302451713287,-24.010191102776542,-40.78299978665326,15.509176150863217,-18.600084976252283,-0.3503138348845159,0.0808522673002852,0.9331361786796756,-0.11523918280179139,0.042926428428669304,0.9924098208348876,67.58251923940168,60.21987498882383,5.0577678026928385,3.554763553218615
327390.6434423,6054414.0,810101.5625,1711217311744.0,-480.0,0.2942979633808136,272.0,0.1667688488960266,-15712.0,9.633354187011719,2672.0,3891.5283203125,2558.0,1873.99267578125,35557.0,323.9971618652344,3.08644700050354,1.0,0.30474027292430933,0.3032535890096515,-66.85842829090882,28.72449712426784,207.0932721222284,19.940815918045622,12.513302451713287,-24.010191102776542,-40.78299978665326,15.509176150863217,-18.600084976252283,-0.3501336204010564,0.08065538649101059,0.9332208508680218,-0.11523918280179139,0.042926428428669304,0.9924098208348876,67.57235489209992,60.21987498882383,5.057410170043863,3.554763553218615
327390.7443874,6054670.0,810109.375,1711217311744.0,-496.0,0.3041079044342041,272.0,0.1667688488960266,-15664.0,9.603923797607422,2673.0,3892.984619140625,2573.0,1884.981689453125,35557.0,323.9971618652344,3.08644700050354,1.0,0.3046666237715415,0.3030956041359467,-67.08577677819517,28.84241701075507,207.7050002092966,19.940815918045622,12.513302451713287,-24.010191102776542,-40.78299978665326,15.509176150863217,-18.600084976252283,-0.3501336204010564,0.08065538649101059,0.9332208508680218,-0.11590080474167512,0.04358217307126821,0.9923041860491258,67.57235489209992,60.53934352665186,5.057410170043863,3.5737747407029614
327390.8454513,6054926.0,810117.1875,1711217311744.0,-480.0,0.2942979633808136,336.0,0.20600858330726624,-15680.0,9.613734245300293,2655.0,3866.769287109375,2548.0,1866.6666259765625,35556.0,324.1510314941406,3.084981679916382,1.0,0.3052299502160992,0.3031782382902789,-67.20625581931199,28.963701654399944,208.75939134054798,19.940815918045622,12.513302451713287,-24.010191102776542,-40.78299978665326,15.509176150863217,-18.600084976252283,-0.34914676030804875,0.08112536323545333,0.9335497925693679,-0.11590080474167512,0.04358217307126821,0.9923041860491258,67.65293855683102,60.53934352665186,5.063138816827569,3.5737747407029614
327390.9462577,6055182.0,810125.0,1711217311744.0,-512.0,0.3139178454875946,304.0,0.18638871610164642,-15696.0,9.623543739318848,2673.0,3892.984619140625,2570.0,1882.783935546875,35556.0,324.1510314941406,3.084981679916382,1.0,0.305170751719232,0.3030050669765265,-67.39528676627623,29.07078406103423,209.27033060895502,19.940815918045622,12.513302451713287,-24.010191102776542,-40.78299978665326,15.509176150863217,-18.600084976252283,-0.34914676030804875,0.08112536323545333,0.9335497925693679,-0.1164425579288632,0.0441952996627611,0.9922136393895731,67.65293855683102,60.60147977358751,5.063138816827569,3.5779635694228267
327391.0464827,6055438.0,810132.8125,1711217311744.0,-496.0,0.3041079044342041,240.0,0.1471489816904068,-15648.0,9.594114303588867,2670.0,3888.615478515625,2570.0,1882.783935546875,35556.0,324.1510314941406,3.084981679916382,0.9814387261867523,0.3053579877367213,0.3042272940401729,-67.45467757157664,28.8798501127878,209.71358790292354,19.940815918045622,12.513302451713287,-24.010191102776542,-40.78299978665326,15.509176150863217,-18.600084976252283,-0.3488386766826126,0.07931089401393654,0.9338208392090175,-0.1164425579288632,0.0441952996627611,0.9922136393895731,67.72361924033947,60.60147977358751,5.068988771449765,3.5779635694228267
327391.1474421,6055694.0,810140.625,1711217311744.0,-512.0,0.3139178454875946,224.0,0.1373390555381775,-15680.0,9.613734245300293,2673.0,3892.984619140625,2582.0,1891.5750732421875,35556.0,324.1510314941406,3.084981679916382,0.9814387261867523,0.3053940435955491,0.3032400519507371,-67.45119616855789,29.0820780842678,209.72114477385594,19.940815918045622,12.513302451713287,-24.010191102776542,-40.78299978665326,15.509176150863217,-18.600084976252283,-0.3488386766826126,0.07931089401393654,0.9338208392090175,-0.11638228662713909,0.045873558195105,0.9921445358504771,67.72361924033947,60.35445097012394,5.068988771449765,3.563167372103892
327391.2485046,6055950.0,810148.4375,1711217311744.0,-560.0,0.3433476388454437,224.0,0.1373390555381775,-15632.0,9.584303855895996,2661.0,3875.5078125,2558.0,1873.99267578125,35555.0,324.3050537109375,3.0835165977478027,1.0,0.3062276449851344,0.30357614005663314,-67.63741442769236,29.223530963926667,211.3292917573796,19.940815918045622,12.513302451713287,-24.010191102776542,-40.78299978665326,15.509176150863217,-18.600084976252283,-0.34737852522682294,0.07965434882419654,0.9343357773973074,-0.11638228662713909,0.045873558195105,0.9921445358504771,67.55457678578195,60.35445097012394,5.055999958688035,3.563167372103892
327391.3496514,6056206.0,810156.25,1711217311744.0,-544.0,0.3335376977920532,272.0,0.1667688488960266,-15648.0,9.594114303588867,2663.0,3878.42041015625,2561.0,1876.1904296875,35555.0,324.3050537109375,3.0835165977478027,1.0,0.3063122416508587,0.30359043965237065,-67.39012538006317,29.126894051492805,210.66067956927532,19.940815918045622,12.513302451713287,-24.010191102776542,-40.78299978665326,15.509176150863217,-18.600084976252283,-0.34737852522682294,0.07965434882419654,0.9343357773973074,-0.11567063319359634,0.04543844772744777,0.9922477775660232,67.55457678578195,60.584699096370784,5.055999958688035,3.5776418141374142
327391.4503868,6056462.0,810164.0625,1711217311744.0,-528.0,0.3237277865409851,304.0,0.18638871610164642,-15712.0,9.633354187011719,2671.0,3890.07177734375,2569.0,1882.05126953125,35554.0,324.459228515625,3.0820512771606445,0.9875878393650055,0.30793392808569886,0.3044951006695734,-67.7593103519842,29.356093423262607,213.85376059834607,19.940815918045622,12.513302451713287,-24.010191102776542,-40.78299978665326,15.509176150863217,-18.600084976252283,-0.34453546280683434,0.07990843825386665,0.9353662151073816,-0.11567063319359634,0.04543844772744777,0.9922477775660232,67.27672383978432,60.584699096370784,5.034948545661323,3.5776418141374142
327391.5514273,6056718.0,810171.875,1711217311744.0,-512.0,0.3139178454875946,240.0,0.1471489816904068,-15712.0,9.633354187011719,2671.0,3890.07177734375,2582.0,1891.5750732421875,35554.0,324.459228515625,3.0820512771606445,0.9875878393650055,0.3078365057574087,0.30436879465457756,-68.05852519914032,29.496257791602233,214.67223737401935,19.940815918045622,12.513302451713287,-24.010191102776542,-40.78299978665326,15.509176150863217,-18.600084976252283,-0.34453546280683434,0.07990843825386665,0.9353662151073816,-0.11651018439568134,0.04614141968632207,0.9921171031291693,67.27672383978432,60.70457784243878,5.034948545661323,3.584400566153276
327391.6524036,6056974.0,810179.6875,1711217311744.0,-496.0,0.3041079044342041,192.0,0.11771918833255768,-15728.0,9.643163681030273,2662.0,3876.964111328125,2558.0,1873.99267578125,35553.0,324.6135559082031,3.0805861949920654,0.990041196346283,0.3086762287545298,0.30538023467321107,-68.26551687439529,29.510517637761506,216.4153638394604,19.940815918045622,12.513302451713287,-24.010191102776542,-40.78299978665326,15.509176150863217,-18.600084976252283,-0.34306782402118247,0.07914274662300141,0.9359705624528681,-0.11651018439568134,0.04614141968632207,0.9921171031291693,67.52877336949554,60.70457784243878,5.054705586476163,3.584400566153276
327391.753509,6057230.0,810187.5,1711217311744.0,-560.0,0.3433476388454437,240.0,0.1471489816904068,-15728.0,9.643163681030273,2663.0,3878.42041015625,2561.0,1876.1904296875,35553.0,324.6135559082031,3.0805861949920654,0.990041196346283,0.30887448327495504,0.30428965724268053,-67.79211733832926,29.561364109616637,215.13683177579014,19.940815918045622,12.513302451713287,-24.010191102776542,-40.78299978665326,15.509176150863217,-18.600084976252283,-0.34306782402118247,0.07914274662300141,0.9359705624528681,-0.11512645211713439,0.0472396994462278,0.9922269452192634,67.52877336949554,60.288866434034375,5.054705586476163,3.559912600593451
327391.8543983,6057486.0,810195.3125,1711217311744.0,-496.0,0.3041079044342041,272.0,0.1667688488960266,-15616.0,9.574494361877441,2670.0,3888.615478515625,2564.0,1878.3883056640625,35553.0,324.6135559082031,3.0805861949920654,1.0,0.3087332566652412,0.30486735513750274,-67.76994457918688,29.41059927586445,214.90298874502383,19.940815918045622,12.513302451713287,-24.010191102776542,-40.78299978665326,15.509176150863217,-18.600084976252283,-0.3433272514977082,0.07803593427391269,0.9359683709084549,-0.11512645211713439,0.0472396994462278,0.9922269452192634,67.71233511957733,60.288866434034375,5.068967180946635,3.559912600593451
327391.9554,6057742.0,810203.125,1711217311744.0,-496.0,0.3041079044342041,256.0,0.1569589227437973,-15680.0,9.613734245300293,2673.0,3892.984619140625,2580.0,1890.10986328125,35553.0,324.6135559082031,3.0805861949920654,1.0,0.3083650669699862,0.3062350485977514,-68.72155233536127,29.480345774105402,217.4856328783064,19.940815918045622,12.513302451713287,-24.010191102776542,-40.78299978665326,15.509176150863217,-18.600084976252283,-0.3433272514977082,0.07803593427391269,0.9359683709084549,-0.11785408162794338,0.04643243384243976,0.991944778972651,67.71233511957733,60.93072787542815,5.068967180946635,3.597573795568339
327392.05644,6057998.0,810210.9375,1711217311744.0,-512.0,0.3139178454875946,288.0,0.17657878994941711,-15680.0,9.613734245300293,2662.0,3876.964111328125,2558.0,1873.99267578125,35552.0,324.7680358886719,3.0791208744049072,0.9783450067043304,0.3091009513390066,0.3072803272314937,-68.9120783050553,29.460724338973883,219.06173204096956,19.940815918045622,12.513302451713287,-24.010191102776542,-40.78299978665326,15.509176150863217,-18.600084976252283,-0.3420411802381711,0.07710064577204832,0.9365165889843126,-0.11785408162794338,0.04643243384243976,0.991944778972651,67.55382428705596,60.93072787542815,5.057116583504083,3.597573795568339
327392.1566915,6058254.0,810218.75,1711217311744.0,-496.0,0.3041079044342041,224.0,0.1373390555381775,-15648.0,9.594114303588867,2664.0,3879.876953125,2554.0,1871.062255859375,35552.0,324.7680358886719,3.0791208744049072,0.9985491335391998,0.3091947834724828,0.30685679864938664,-68.92722080279536,29.570796020363755,219.21992123168275,19.940815918045622,12.513302451713287,-24.010191102776542,-40.78299978665326,15.509176150863217,-18.600084976252283,-0.3418675401312541,0.07790245308810405,0.9365136372778888,-0.11785408162794338,0.04643243384243976,0.991944778972651,67.77032522224863,60.93072787542815,5.073623828741326,3.597573795568339
327392.2574376,6058510.0,810226.5625,1711217311744.0,-576.0,0.35315757989883423,208.0,0.12752912938594818,-15648.0,9.594114303588867,2670.0,3888.615478515625,2564.0,1878.3883056640625,35550.0,325.077392578125,3.07619047164917,0.9985491335391998,0.3092479715623486,0.3064768890788728,-68.80618528131997,29.606772218657994,218.89360950704273,19.940815918045622,12.513302451713287,-24.010191102776542,-40.78299978665326,15.509176150863217,-18.600084976252283,-0.3418675401312541,0.07790245308810405,0.9365136372778888,-0.11750316617234487,0.046891311112393724,0.9919648234093963,67.77032522224863,61.049338596460494,5.073623828741326,3.604491261745082
327392.3585031,6058766.0,810234.375,1711217311744.0,-544.0,0.3335376977920532,192.0,0.11771918833255768,-15648.0,9.594114303588867,2659.0,3872.594970703125,2552.0,1869.5970458984375,35552.0,324.7680358886719,3.0791208744049072,0.9800888299942017,0.3102758518083738,0.30706480907403255,-69.06057460511181,29.757984921869323,221.0563894785118,19.940815918045622,12.513302451713287,-24.010191102776542,-40.78299978665326,15.509176150863217,-18.600084976252283,-0.34005254229153664,0.07803887330519937,0.937162847500005,-0.11750316617234487,0.046891311112393724,0.9919648234093963,67.57650317634973,61.049338596460494,5.058431553834713,3.604491261745082
327392.4593676,6059022.0,810242.1875,1711217311744.0,-544.0,0.3335376977920532,224.0,0.1373390555381775,-15664.0,9.603923797607422,2657.0,3869.68212890625,2540.0,1860.805908203125,35550.0,325.077392578125,3.07619047164917,0.9800888299942017,0.31046897325062045,0.30628418536281565,-68.55926793252283,29.736671759795676,219.6823888406484,19.940815918045622,12.513302451713287,-24.010191102776542,-40.78299978665326,15.509176150863217,-18.600084976252283,-0.34005254229153664,0.07803887330519937,0.937162847500005,-0.11609651587566937,0.047440753955497766,0.9921043160200768,67.57650317634973,60.663374429834015,5.058431553834713,3.5819750986338503
327392.5604669,6059278.0,810250.0,1711217311744.0,-528.0,0.3237277865409851,256.0,0.1569589227437973,-15696.0,9.623543739318848,2663.0,3878.42041015625,2546.0,1865.201416015625,35551.0,324.9226379394531,3.077655792236328,0.9890043139457703,0.310559303758403,0.3065239879504239,-68.58443978784283,29.71186933428606,219.88704292444567,19.940815918045622,12.513302451713287,-24.010191102776542,-40.78299978665326,15.509176150863217,-18.600084976252283,-0.33989613438123356,0.0777396210918023,0.9372444553824778,-0.11609651587566937,0.047440753955497766,0.9921043160200768,67.6881875394133,60.663374429834015,5.067415693876723,3.5819750986338503
327392.6623189,6059534.0,810257.8125,1711217311744.0,-512.0,0.3139178454875946,240.0,0.1471489816904068,-15696.0,9.623543739318848,2670.0,3888.615478515625,2564.0,1878.3883056640625,35550.0,325.077392578125,3.07619047164917,0.9890043139457703,0.310491286334169,0.3079250101691605,-68.64492544078317,29.432884183514574,220.02898160069742,19.940815918045622,12.513302451713287,-24.010191102776542,-40.78299978665326,15.509176150863217,-18.600084976252283,-0.33989613438123356,0.0777396210918023,0.9372444553824778,-0.11633381477210554,0.045140971652271246,0.9921838217885122,67.6881875394133,60.81769163525382,5.067415693876723,3.5911149839802996
327392.7632015,6059790.0,810265.625,1711217311744.0,-560.0,0.3433476388454437,240.0,0.1471489816904068,-15664.0,9.603923797607422,2670.0,3888.615478515625,2566.0,1879.853515625,35550.0,325.077392578125,3.07619047164917,0.9890043139457703,0.3105025182776909,0.3075749690853624,-68.64719853563457,29.509166470934492,220.04177366118347,19.940815918045622,12.513302451713287,-24.010191102776542,-40.78299978665326,15.509176150863217,-18.600084976252283,-0.33989613438123356,0.0777396210918023,0.9372444553824778,-0.11632208242424803,0.04574289955116665,0.9921576287471351,67.6881875394133,60.67724880508752,5.067415693876723,3.582530112182571
327392.8645069,6060046.0,810273.4375,1711217311744.0,-480.0,0.2942979633808136,224.0,0.1373390555381775,-15664.0,9.603923797607422,2649.0,3858.03076171875,2535.0,1857.142822265625,35549.0,325.2322998046875,3.074725389480591,1.0,0.3105577868243383,0.30689916917998483,-68.64895786025059,29.660758275239672,220.1017867856873,19.940815918045622,12.513302451713287,-24.010191102776542,-40.78299978665326,15.509176150863217,-18.600084976252283,-0.3397862182676242,0.07891737363317812,0.9371858801829165,-0.11632208242424803,0.04574289955116665,0.9921576287471351,67.57980240777995,60.67724880508752,5.059372812225772,3.582530112182571
327392.9654613,6060302.0,810281.25,1711217311744.0,-480.0,0.2942979633808136,256.0,0.1569589227437973,-15616.0,9.574494361877441,2662.0,3876.964111328125,2536.0,1857.87548828125,35549.0,325.2322998046875,3.074725389480591,1.0,0.3108271089982133,0.3069578723399736,-68.71349898465749,29.719816871598006,220.6624556219697,19.940815918045622,12.513302451713287,-24.010191102776542,-40.78299978665326,15.509176150863217,-18.600084976252283,-0.339308463139092,0.07911088380351969,0.9373426454109584,-0.11632208242424803,0.04574289955116665,0.9921576287471351,67.7630628504397,60.67724880508752,5.0732589545248015,3.582530112182571
327393.0664135,6060558.0,810289.0625,1711217311744.0,-544.0,0.3335376977920532,256.0,0.1569589227437973,-15664.0,9.603923797607422,2671.0,3890.07177734375,2566.0,1879.853515625,35548.0,325.3873596191406,3.0732600688934326,1.0,0.3108447566969038,0.30665633860073727,-68.6915147554704,29.776646181313126,220.6070164278014,19.940815918045622,12.513302451713287,-24.010191102776542,-40.78299978665326,15.509176150863217,-18.600084976252283,-0.339308463139092,0.07911088380351969,0.9373426454109584,-0.11624666725349168,0.04622406321891661,0.9921441671108032,67.7630628504397,60.7758607982388,5.0732589545248015,3.588366326578735
327393.1673823,6060814.0,810296.875,1711217311744.0,-528.0,0.3237277865409851,240.0,0.1471489816904068,-15664.0,9.603923797607422,2671.0,3890.07177734375,2572.0,1884.2490234375,35548.0,325.3873596191406,3.0732600688934326,0.985984593629837,0.31040450083811544,0.3073140883082104,-68.59880853433235,29.527383038293298,219.75219087815935,19.940815918045622,12.513302451713287,-24.010191102776542,-40.78299978665326,15.509176150863217,-18.600084976252283,-0.3401022594107063,0.07754751077893005,0.9371855935276237,-0.11624666725349168,0.04622406321891661,0.9921441671108032,67.8003609767569,60.7758607982388,5.076458481472432,3.588366326578735
327393.2682684,6061070.0,810304.6875,1711217311744.0,-544.0,0.3335376977920532,256.0,0.1569589227437973,-15648.0,9.594114303588867,2656.0,3868.2255859375,2547.0,1865.93408203125,35548.0,325.3873596191406,3.0732600688934326,0.985984593629837,0.3104960252174628,0.3082107410901138,-68.2341057217075,29.19784842314233,218.72571252124078,19.940815918045622,12.513302451713287,-24.010191102776542,-40.78299978665326,15.509176150863217,-18.600084976252283,-0.3401022594107063,0.07754751077893005,0.9371855935276237,-0.11528857023911807,0.04411558831611615,0.9923519337612754,67.8003609767569,60.79339618130142,5.076458481472432,3.588944860335026
327393.3694379,6061326.0,810312.5,1711217311744.0,-512.0,0.3139178454875946,224.0,0.1373390555381775,-15712.0,9.633354187011719,2664.0,3879.876953125,2542.0,1862.2711181640625,35548.0,325.3873596191406,3.0732600688934326,1.0,0.3634702586958336,0.3599103134400621,-103.40803628301227,39.17184548186512,477.9471806667804,nan,nan,nan,-90.90769671496713,52.46804386572566,-21.7196609579372,nan,nan,nan,-0.025000679136090283,-0.02659239676772104,0.9993336832494352,nan,60.79339618130142,nan,3.588944860335026
327393.4703799,6061582.0,810320.3125,1711217311744.0,-480.0,0.2942979633808136,256.0,0.1569589227437973,-15696.0,9.623543739318848,2671.0,3890.07177734375,2569.0,1882.05126953125,35547.0,325.5425720214844,3.0717949867248535,1.0,0.31032461519278565,0.3062801287780932,-67.95148657984615,29.45079510278502,217.54868704197435,19.940815918045622,12.513302451713287,-24.010191102776542,-40.78299978665326,15.509176150863217,-18.600084976252283,-0.3405042897582003,0.08020659437687648,0.9368157400869856,-0.11473034959472687,0.04407901059007131,0.9924182524053415,67.76186718931396,60.7214204493178,5.072763280569591,3.584906991924921
327393.5713818,6061838.0,810328.125,1711217311744.0,-480.0,0.2942979633808136,224.0,0.1373390555381775,-15744.0,9.652973175048828,2673.0,3892.984619140625,2575.0,1886.4468994140625,35547.0,325.5425720214844,3.0717949867248535,1.0,0.3104079664038084,0.30557194106895846,-67.77860070934949,29.535932210940686,217.08384253456262,19.940815918045622,12.513302451713287,-24.010191102776542,-40.78299978665326,15.509176150863217,-18.600084976252283,-0.3405042897582003,0.08020659437687648,0.9368157400869856,-0.11421105935744144,0.045011416866316004,0.9924362983447036,67.76186718931396,61.106716447305224,5.072763280569591,3.6068765386382844
327393.6724263,6062094.0,810335.9375,1711217311744.0,-528.0,0.3237277865409851,208.0,0.12752912938594818,-15760.0,9.6627836227417,2656.0,3868.2255859375,2547.0,1865.93408203125,35546.0,325.69793701171875,3.0703296661376953,0.9979343712329865,0.31017490503649353,0.3052899814186083,-67.72175329290457,29.532155562942222,216.59530556233207,19.940815918045622,12.513302451713287,-24.010191102776542,-40.78299978665326,15.509176150863217,-18.600084976252283,-0.34091266616832605,0.08042123240690303,0.936648802606483,-0.11421105935744144,0.045011416866316004,0.9924362983447036,67.83975849670968,61.106716447305224,5.078681724766946,3.6068765386382844
327393.7737005,6062350.0,810343.75,1711217311744.0,-528.0,0.3237277865409851,256.0,0.1569589227437973,-15648.0,9.594114303588867,2671.0,3890.07177734375,2566.0,1879.853515625,35546.0,325.69793701171875,3.0703296661376953,0.9979343712329865,0.3101407230829939,0.3064973900515022,-67.69861009703028,29.267020789507068,216.50895253517547,19.940815918045622,12.513302451713287,-24.010191102776542,-40.78299978665326,15.509176150863217,-18.600084976252283,-0.34091266616832605,0.08042123240690303,0.936648802606483,-0.11420778547008402,0.042911159219009856,0.9925297044182102,67.83975849670968,61.082885175759166,5.078681724766946,3.605884341779202
327393.8744289,6062606.0,810351.5625,1711217311744.0,-544.0,0.3335376977920532,240.0,0.1471489816904068,-15616.0,9.574494361877441,2645.0,3852.205078125,2523.0,1848.3516845703125,35547.0,325.5425720214844,3.0717949867248535,0.9840445518493652,0.3101353879049589,0.3065752598600937,-67.69866445026778,29.250102254476726,216.50431147546237,19.940815918045622,12.513302451713287,-24.010191102776542,-40.78299978665326,15.509176150863217,-18.600084976252283,-0.34092350198458915,0.08028680278433273,0.936656391155921,-0.11420778547008402,0.042911159219009856,0.9925297044182102,68.00669456273644,61.082885175759166,5.091867950074547,3.605884341779202
327393.9754559,6062862.0,810359.375,1711217311744.0,-560.0,0.3433476388454437,256.0,0.1569589227437973,-15664.0,9.603923797607422,2664.0,3879.876953125,2536.0,1857.87548828125,35546.0,325.69793701171875,3.0703296661376953,0.9840445518493652,0.31022295948627354,0.3068648773057864,-67.41325965550644,29.080993829380105,215.71079237777292,19.940815918045622,12.513302451713287,-24.010191102776542,-40.78299978665326,15.509176150863217,-18.600084976252283,-0.34092350198458915,0.08028680278433273,0.936656391155921,-0.11341790872394206,0.04195411641420905,0.9926611859524832,68.00669456273644,61.237573414208796,5.091867950074547,3.615009739792695
327394.0769728,6063118.0,810367.1875,1711217311744.0,-544.0,0.3335376977920532,240.0,0.1471489816904068,-15664.0,9.603923797607422,2654.0,3865.312744140625,2524.0,1849.084228515625,35545.0,325.8534240722656,3.068864583969116,1.0,0.30966834838319396,0.30604190020395994,-67.27862136886216,29.1044429817981,214.55415239152887,19.940815918045622,12.513302451713287,-24.010191102776542,-40.78299978665326,15.509176150863217,-18.600084976252283,-0.34189087452195993,0.08104903470834357,0.9362380487309063,-0.11341790872394206,0.04195411641420905,0.9926611859524832,67.82410438555293,61.237573414208796,5.077927288956638,3.615009739792695
327394.1783833,6063374.0,810375.0,1711217311744.0,-528.0,0.3237277865409851,208.0,0.12752912938594818,-15664.0,9.603923797607422,2662.0,3876.964111328125,2536.0,1857.87548828125,35545.0,325.8534240722656,3.068864583969116,1.0,0.31009419745498173,0.30437633392319696,-66.22897627838086,29.05324600450834,211.6963578229482,19.940815918045622,12.513302451713287,-24.010191102776542,-40.78299978665326,15.509176150863217,-18.600084976252283,-0.34189087452195993,0.08104903470834357,0.9362380487309063,-0.11030496611798421,0.04305550784688039,0.9929647716277539,67.82410438555293,60.920306578907635,5.077927288956638,3.5962764230274233
327394.2792651,6063630.0,810382.8125,1711217311744.0,-480.0,0.2942979633808136,160.0,0.09809932857751846,-15744.0,9.652973175048828,2672.0,3891.5283203125,2555.0,1871.794921875,35544.0,326.0090637207031,3.067399263381958,0.9918760061264038,0.3103368947218441,0.304466468702588,-66.28058274266526,29.095943467339964,212.1681926632091,19.940815918045622,12.513302451713287,-24.010191102776542,-40.78299978665326,15.509176150863217,-18.600084976252283,-0.34146348315201697,0.08116165864286094,0.9363842559761627,-0.11030496611798421,0.04305550784688039,0.9929647716277539,67.92255110923114,60.920306578907635,5.085642668537248,3.5962764230274233
327394.3804384,6063886.0,810390.625,1711217311744.0,-576.0,0.35315757989883423,192.0,0.11771918833255768,-15696.0,9.623543739318848,2673.0,3892.984619140625,2574.0,1885.7142333984375,35545.0,325.8534240722656,3.068864583969116,0.9918760061264038,0.31022713442739736,0.3049584251614349,-66.5425380839731,29.09354061678473,212.88106244936503,19.940815918045622,12.513302451713287,-24.010191102776542,-40.78299978665326,15.509176150863217,-18.600084976252283,-0.34146348315201697,0.08116165864286094,0.9363842559761627,-0.11109099347268038,0.042653752344073696,0.9928944800834694,67.92255110923114,61.13154628073956,5.085642668537248,3.6085177683511995
327394.4824225,6064142.0,810398.4375,1711217311744.0,-576.0,0.35315757989883423,224.0,0.1373390555381775,-15648.0,9.594114303588867,2657.0,3869.68212890625,2546.0,1865.201416015625,35545.0,325.8534240722656,3.068864583969116,1.0,0.30965904180070536,0.30405391025174433,-66.40976736817157,29.129173513755276,211.720710060148,19.940815918045622,12.513302451713287,-24.010191102776542,-40.78299978665326,15.509176150863217,-18.600084976252283,-0.34245173173738197,0.08204250259614418,0.9359464937686501,-0.11109099347268038,0.042653752344073696,0.9928944800834694,67.91500277969415,61.13154628073956,5.084922179643749,3.6085177683511995
327394.5837683,6064398.0,810406.25,1711217311744.0,-512.0,0.3139178454875946,240.0,0.1471489816904068,-15664.0,9.603923797607422,2672.0,3891.5283203125,2566.0,1879.853515625,35543.0,326.1648864746094,3.065934181213379,0.9853456616401672,0.308997337455532,0.303884903606107,-66.27020123720192,28.998249544063693,210.44878481709674,19.940815918045622,12.513302451713287,-24.010191102776542,-40.78299978665326,15.509176150863217,-18.600084976252283,-0.3436167617691595,0.08160876776100914,0.9355573365945062,-0.11109099347268038,0.042653752344073696,0.9928944800834694,68.05059659824902,61.13154628073956,5.095176129285159,3.6085177683511995
327394.6854349,6064654.0,810414.0625,1711217311744.0,-592.0,0.36296749114990234,304.0,0.18638871610164642,-15648.0,9.594114303588867,2646.0,3853.66162109375,2520.0,1846.15380859375,35544.0,326.0090637207031,3.067399263381958,0.9853456616401672,0.3089069179098417,0.3041769304133015,-66.49673617465677,29.024303729748958,211.0633452871782,19.940815918045622,12.513302451713287,-24.010191102776542,-40.78299978665326,15.509176150863217,-18.600084976252283,-0.3436167617691595,0.08160876776100914,0.9355573365945062,-0.1117690353469848,0.042537462960856885,0.9928233714928643,68.05059659824902,61.30439149466913,5.095176129285159,3.6189472090146064
327394.7863237,6064910.0,810421.875,1711217311744.0,-512.0,0.3139178454875946,336.0,0.20600858330726624,-15664.0,9.603923797607422,2672.0,3891.5283203125,2554.0,1871.062255859375,35544.0,326.0090637207031,3.067399263381958,0.9747096598148346,0.30839859546239556,0.30390035812628546,-66.38704832039336,28.952811881702097,210.07940131135172,19.940815918045622,12.513302451713287,-24.010191102776542,-40.78299978665326,15.509176150863217,-18.600084976252283,-0.34450827701761844,0.0815177730463957,0.9352373494166646,-0.1117690353469848,0.042537462960856885,0.9928233714928643,68.14202087493048,61.30439149466913,5.102234079577201,3.6189472090146064
327394.8874644,6065166.0,810429.6875,1711217311744.0,-496.0,0.3041079044342041,304.0,0.18638871610164642,-15632.0,9.584303855895996,2662.0,3876.964111328125,2545.0,1864.4688720703125,35542.0,326.3208312988281,3.0644688606262207,0.9747096598148346,0.30827660810101143,0.3050850052369377,-66.61343920028241,28.793987356795668,210.67531343527062,19.940815918045622,12.513302451713287,-24.010191102776542,-40.78299978665326,15.509176150863217,-18.600084976252283,-0.34450827701761844,0.0815177730463957,0.9352373494166646,-0.11249210503257662,0.04089788665638703,0.9928106008561657,68.14202087493048,61.239076370129354,5.102234079577201,3.6149331744748383
327394.9884256,6065422.0,810437.5,1711217311744.0,-496.0,0.3041079044342041,288.0,0.17657878994941711,-15680.0,9.613734245300293,2672.0,3891.5283203125,2565.0,1879.120849609375,35542.0,326.3208312988281,3.0644688606262207,0.9939127862453461,0.3042817260158317,0.30202127115303967,-65.76000423470305,28.42427178042665,203.1212183458763,19.940815918045622,12.513302451713287,-24.010191102776542,-40.78299978665326,15.509176150863217,-18.600084976252283,-0.351465277699771,0.08227202723214469,0.9325789361263399,-0.11249210503257662,0.04089788665638703,0.9928106008561657,67.84892409071031,61.239076370129354,5.082883303075435,3.6149331744748383
327395.0890783,6065678.0,810445.3125,1711217311744.0,-496.0,0.3041079044342041,240.0,0.1471489816904068,-15648.0,9.594114303588867,2671.0,3890.07177734375,2572.0,1884.2490234375,35542.0,326.3208312988281,3.0644688606262207,0.9939127862453461,0.3036392447846065,0.3048071500813403,-67.29355083179269,28.436322602608996,207.1613065354258,19.940815918045622,12.513302451713287,-24.010191102776542,-40.78299978665326,15.509176150863217,-18.600084976252283,-0.351465277699771,0.08227202723214469,0.9325789361263399,-0.11722232066733483,0.03879661757094619,0.9923475953527665,67.84892409071031,61.34351842032217,5.082883303075435,3.6203294636569696
327395.1893799,6065934.0,810453.125,1711217311744.0,-544.0,0.3335376977920532,208.0,0.12752912938594818,-15696.0,9.623543739318848,2673.0,3892.984619140625,2583.0,1892.3077392578125,35542.0,326.3208312988281,3.0644688606262207,0.9804713129997253,0.29802026096461515,0.2999789478731849,-66.08467515924119,28.040904067379273,196.9226463595391,19.940815918045622,12.513302451713287,-24.010191102776542,-40.78299978665326,15.509176150863217,-18.600084976252283,-0.36115761967813087,0.08418693290115793,0.9286967934030581,-0.11722232066733483,0.03879661757094619,0.9923475953527665,67.76247807296414,61.34351842032217,5.080025028042281,3.6203294636569696
327395.2896448,6066190.0,810460.9375,1711217311744.0,-432.0,0.2648681700229645,208.0,0.12752912938594818,-15696.0,9.623543739318848,2658.0,3871.138427734375,2552.0,1869.5970458984375,35541.0,326.4769287109375,3.0630037784576416,0.9804713129997253,0.2969826485476704,0.30470238431756647,-68.57218141575139,28.020483400553665,203.26913172476984,19.940815918045622,12.513302451713287,-24.010191102776542,-40.78299978665326,15.509176150863217,-18.600084976252283,-0.36115761967813087,0.08418693290115793,0.9286967934030581,-0.12498819083899741,0.035103397357146356,0.9915370409847434,67.76247807296414,61.53044614764277,5.080025028042281,3.631108439562755
327395.3904798,6066446.0,810468.75,1711217311744.0,-448.0,0.274678111076355,240.0,0.1471489816904068,-15712.0,9.633354187011719,2673.0,3892.984619140625,2572.0,1884.2490234375,35541.0,326.4769287109375,3.0630037784576416,1.0,0.3572257630433738,0.36971316649883745,-108.42882437674332,34.84724163812484,477.6624747000332,nan,nan,nan,-90.90769671496713,52.46804386572566,-21.7196609579372,nan,nan,nan,-0.035042255323552374,-0.035241604455201705,0.9987642713159408,nan,61.53044614764277,nan,3.631108439562755
327395.4912778,6066702.0,810476.5625,1711217311744.0,-512.0,0.3139178454875946,288.0,0.17657878994941711,-15744.0,9.652973175048828,2672.0,3891.5283203125,2574.0,1885.7142333984375,35540.0,326.6331787109375,3.0615384578704834,0.9175899922847748,0.28709920930626864,0.3057294789947994,-70.4794132863213,27.23078890330133,197.90765927285884,19.940815918045622,12.513302451713287,-24.010191102776542,-40.78299978665326,15.509176150863217,-18.600084976252283,-0.3755074002719952,0.08384703951059834,0.9230188872966121,-0.13667562256651067,0.030985480609742183,0.9901311398938222,67.93632595809376,61.3150615509885,5.099067180711831,3.618720426933612
327395.5914709,6066958.0,810484.375,1711217311744.0,-480.0,0.2942979633808136,224.0,0.1373390555381775,-15712.0,9.633354187011719,2671.0,3890.07177734375,2580.0,1890.10986328125,35541.0,326.4769287109375,3.0630037784576416,0.9265379011631012,0.286950669168951,0.30738276644163787,-70.47107595346881,26.89209354207766,197.76612443772282,19.940815918045622,12.513302451713287,-24.010191102776542,-40.78299978665326,15.509176150863217,-18.600084976252283,-0.37579260433617145,0.08096950708909005,0.9231597139433606,-0.13667562256651067,0.030985480609742183,0.9901311398938222,67.81368586769766,61.3150615509885,5.091185062545566,3.618720426933612
327395.6933709,6067214.0,810492.1875,1711217311744.0,-528.0,0.3237277865409851,256.0,0.1569589227437973,-15760.0,9.6627836227417,2658.0,3871.138427734375,2554.0,1871.062255859375,35540.0,326.6331787109375,3.0615384578704834,0.9265379011631012,0.2865190320481276,0.3098562280169198,-71.54029054488984,26.76452652701828,200.3607878409749,19.940815918045622,12.513302451713287,-24.010191102776542,-40.78299978665326,15.509176150863217,-18.600084976252283,-0.37579260433617145,0.08096950708909005,0.9231597139433606,-0.13989857022758903,0.02855516904586805,0.9897540059878707,67.81368586769766,61.3178929614825,5.091185062545566,3.6191372522785796
327395.7942018,6067470.0,810500.0,1711217311744.0,-560.0,0.3433476388454437,272.0,0.1667688488960266,-15664.0,9.603923797607422,2672.0,3891.5283203125,2564.0,1878.3883056640625,35540.0,326.6331787109375,3.0615384578704834,0.9265379011631012,0.28646610919750193,0.3109352367122836,-71.571528522895,26.560441535981738,200.41710639476287,19.940815918045622,12.513302451713287,-24.010191102776542,-40.78299978665326,15.509176150863217,-18.600084976252283,-0.37579260433617145,0.08096950708909005,0.9231597139433606,-0.1400463776007123,0.026767297357264047,0.9897830691182318,67.81368586769766,61.06386966106011,5.091185062545566,3.604228322079249
327395.8949352,6067726.0,810507.8125,1711217311744.0,-496.0,0.3041079044342041,272.0,0.1667688488960266,-15632.0,9.584303855895996,2673.0,3892.984619140625,2578.0,1888.6446533203125,35539.0,326.78955078125,3.0600733757019043,0.9640453457832336,0.2868164524696762,0.31132649760000874,-71.66314350484575,26.563313469499178,201.0617172466878,19.940815918045622,12.513302451713287,-24.010191102776542,-40.78299978665326,15.509176150863217,-18.600084976252283,-0.3751994337617635,0.08069857810158557,0.923424671750346,-0.1400463776007123,0.026767297357264047,0.9897830691182318,68.00172637471643,61.06386966106011,5.106199202180466,3.604228322079249
327395.9958531,6067982.0,810515.625,1711217311744.0,-496.0,0.3041079044342041,272.0,0.1667688488960266,-15632.0,9.584303855895996,2664.0,3879.876953125,2559.0,1874.7252197265625,35539.0,326.78955078125,3.0600733757019043,0.9640453457832336,0.2867878973381518,0.3106544132754927,-71.84496349822557,26.757901275363125,201.52471568096973,19.940815918045622,12.513302451713287,-24.010191102776542,-40.78299978665326,15.509176150863217,-18.600084976252283,-0.3751994337617635,0.08069857810158557,0.923424671750346,-0.14052496662621555,0.028210153974584047,0.9896751593161419,68.00172637471643,61.022364254472805,5.106199202180466,3.601422736769543
327396.0965082,6068238.0,810523.4375,1711217311744.0,-480.0,0.2942979633808136,288.0,0.17657878994941711,-15680.0,9.613734245300293,2655.0,3866.769287109375,2546.0,1865.201416015625,35540.0,326.6331787109375,3.0615384578704834,0.9206207990646362,0.28816775309141285,0.3114016155909305,-72.2008405807128,26.92312338352985,204.05523778194362,19.940815918045622,12.513302451713287,-24.010191102776542,-40.78299978665326,15.509176150863217,-18.600084976252283,-0.37284215743761573,0.08093899428998298,0.9243579419470525,-0.14052496662621555,0.028210153974584047,0.9896751593161419,67.82539343156117,61.022364254472805,5.09258690160261,3.601422736769543
327396.1973933,6068494.0,810531.25,1711217311744.0,-576.0,0.35315757989883423,240.0,0.1471489816904068,-15680.0,9.613734245300293,2671.0,3890.07177734375,2562.0,1876.923095703125,35538.0,326.94610595703125,3.058608055114746,0.9406880736351013,0.28940709751592547,0.31267403992314513,-72.53744061390218,26.9587907262556,206.4202813171445,19.940815918045622,12.513302451713287,-24.010191102776542,-40.78299978665326,15.509176150863217,-18.600084976252283,-0.37073057951610444,0.08016332174879494,0.9252743805260429,-0.14052496662621555,0.028210153974584047,0.9896751593161419,68.16419693406381,61.022364254472805,5.119033777376101,3.601422736769543
327396.2984993,6068750.0,810539.0625,1711217311744.0,-528.0,0.3237277865409851,240.0,0.1471489816904068,-15792.0,9.682403564453125,2665.0,3881.333251953125,2564.0,1878.3883056640625,35538.0,326.94610595703125,3.058608055114746,0.9406880736351013,0.28894782792182594,0.31529972393525707,-73.74039103084853,26.81440933108205,209.38449134275396,19.940815918045622,12.513302451713287,-24.010191102776542,-40.78299978665326,15.509176150863217,-18.600084976252283,-0.37073057951610444,0.08016332174879494,0.9252743805260429,-0.14392631828262029,0.025599029079637896,0.9892572489579188,68.16419693406381,61.54263721475896,5.119033777376101,3.631429911860946
327396.3994367,6069006.0,810546.875,1711217311744.0,-512.0,0.3139178454875946,208.0,0.12752912938594818,-15680.0,9.613734245300293,2672.0,3891.5283203125,2566.0,1879.853515625,35538.0,326.94610595703125,3.058608055114746,0.9427511990070343,0.29055547060448583,0.3174061535360886,-74.21890755298364,26.769688191403212,212.64644418788885,19.940815918045622,12.513302451713287,-24.010191102776542,-40.78299978665326,15.509176150863217,-18.600084976252283,-0.3679891663542096,0.0783978999723222,0.9265191539983744,-0.14392631828262029,0.025599029079637896,0.9892572489579188,68.08626925678296,61.54263721475896,5.113798738167521,3.631429911860946
327396.5001147,6069262.0,810554.6875,1711217311744.0,-528.0,0.3237277865409851,208.0,0.12752912938594818,-15664.0,9.603923797607422,2661.0,3875.5078125,2558.0,1873.99267578125,35539.0,326.78955078125,3.0600733757019043,0.9427511990070343,0.29068194559044735,0.3173006050555842,-73.79604736210871,26.65519936077121,211.57845432981617,19.940815918045622,12.513302451713287,-24.010191102776542,-40.78299978665326,15.509176150863217,-18.600084976252283,-0.3679891663542096,0.0783978999723222,0.9265191539983744,-0.14280762992333199,0.025141763086289567,0.9894310853134711,68.08626925678296,61.06427512572984,5.113798738167521,3.603368165447443
327396.6008525,6069518.0,810562.5,1711217311744.0,-544.0,0.3335376977920532,192.0,0.11771918833255768,-15680.0,9.613734245300293,2655.0,3866.769287109375,2538.0,1859.3406982421875,35538.0,326.94610595703125,3.058608055114746,0.9427511990070343,0.2902450548697303,0.3191685548793062,-75.06553964558921,26.669313685408554,214.7505981845386,19.940815918045622,12.513302451713287,-24.010191102776542,-40.78299978665326,15.509176150863217,-18.600084976252283,-0.3679891663542096,0.0783978999723222,0.9265191539983744,-0.14622070424309927,0.023843833886384728,0.9889645985758287,68.08626925678296,61.53994361469365,5.113798738167521,3.630158708568417
327396.7015719,6069774.0,810570.3125,1711217311744.0,-592.0,0.36296749114990234,208.0,0.12752912938594818,-15680.0,9.613734245300293,2647.0,3855.117919921875,2520.0,1846.15380859375,35538.0,326.94610595703125,3.058608055114746,0.9454129338264465,0.29242920433184116,0.32090531036316017,-75.74004419102052,26.833418264075206,219.32908658718236,19.940815918045622,12.513302451713287,-24.010191102776542,-40.78299978665326,15.509176150863217,-18.600084976252283,-0.36422297274280796,0.07785095676241381,0.9280521831543571,-0.14622070424309927,0.023843833886384728,0.9889645985758287,68.07918351378478,61.53994361469365,5.113383417768098,3.630158708568417
327396.802308,6070030.0,810578.125,1711217311744.0,-528.0,0.3237277865409851,240.0,0.1471489816904068,-15648.0,9.594114303588867,2671.0,3890.07177734375,2551.0,1868.864501953125,35537.0,327.1028137207031,3.057142972946167,0.9709520041942596,0.2938680084556967,0.3227846784442836,-76.21249273742549,26.79260397263401,222.50017564994585,19.940815918045622,12.513302451713287,-24.010191102776542,-40.78299978665326,15.509176150863217,-18.600084976252283,-0.3617476749359914,0.07627120584905968,0.9291508611827977,-0.14622070424309927,0.023843833886384728,0.9889645985758287,68.24998478756613,61.53994361469365,5.127019277148226,3.630158708568417
327396.9030831,6070286.0,810585.9375,1711217311744.0,-528.0,0.3237277865409851,288.0,0.17657878994941711,-15648.0,9.594114303588867,2656.0,3868.2255859375,2535.0,1857.142822265625,35536.0,327.2596435546875,3.055677652359009,0.9709520041942596,0.2938111850922732,0.3228449465999469,-76.41134340733042,26.841986459888854,223.0121001541957,19.940815918045622,12.513302451713287,-24.010191102776542,-40.78299978665326,15.509176150863217,-18.600084976252283,-0.3617476749359914,0.07627120584905968,0.9291508611827977,-0.14671152230905926,0.024018466569388983,0.9888876794082396,68.24998478756613,60.97355728713753,5.127019277148226,3.5971212638488765
327397.0033841,6070542.0,810593.75,1711217311744.0,-544.0,0.3335376977920532,288.0,0.17657878994941711,-15616.0,9.574494361877441,2663.0,3878.42041015625,2544.0,1863.7362060546875,35536.0,327.2596435546875,3.055677652359009,0.9766597151756287,0.2954338602796554,0.3244499308056057,-76.95347301987165,26.903563753244534,226.6629455581221,19.940815918045622,12.513302451713287,-24.010191102776542,-40.78299978665326,15.509176150863217,-18.600084976252283,-0.3589350040683827,0.07533883945958991,0.9303170008783631,-0.14671152230905926,0.024018466569388983,0.9888876794082396,67.97737296760604,60.97355728713753,5.106167309001847,3.5971212638488765
327397.1044414,6070798.0,810601.5625,1711217311744.0,-560.0,0.3433476388454437,256.0,0.1569589227437973,-15632.0,9.584303855895996,2671.0,3890.07177734375,2566.0,1879.853515625,35536.0,327.2596435546875,3.055677652359009,0.9766597151756287,0.29518789298963505,0.32459855413808525,-77.85209686472919,27.151458555139975,229.00005496353856,19.940815918045622,12.513302451713287,-24.010191102776542,-40.78299978665326,15.509176150863217,-18.600084976252283,-0.3589350040683827,0.07533883945958991,0.9303170008783631,-0.14885151658299045,0.024976743160356793,0.9885440750477669,67.97737296760604,61.01418420249568,5.106167309001847,3.6002283289750117
327397.2054978,6071054.0,810609.375,1711217311744.0,-592.0,0.36296749114990234,320.0,0.19619865715503693,-15728.0,9.643163681030273,2664.0,3879.876953125,2557.0,1873.2601318359375,35536.0,327.2596435546875,3.055677652359009,0.9916054904460907,0.29662616439203804,0.3265228767206273,-78.37388199760862,27.10310383440083,232.43680847950804,19.940815918045622,12.513302451713287,-24.010191102776542,-40.78299978665326,15.509176150863217,-18.600084976252283,-0.3564413244911252,0.07367676950324112,0.931408243376973,-0.14885151658299045,0.024976743160356793,0.9885440750477669,68.25320764240466,61.01418420249568,5.127239647718937,3.6002283289750117
327397.306481,6071310.0,810617.1875,1711217311744.0,-544.0,0.3335376977920532,336.0,0.20600858330726624,-15744.0,9.652973175048828,2656.0,3868.2255859375,2534.0,1856.4102783203125,35535.0,327.4166564941406,3.0542125701904297,0.9916054904460907,0.2963657609515765,0.32610923565531746,-79.44033001939765,27.529144994041864,235.24708125735293,19.940815918045622,12.513302451713287,-24.010191102776542,-40.78299978665326,15.509176150863217,-18.600084976252283,-0.3564413244911252,0.07367676950324112,0.931408243376973,-0.1512565599444365,0.02706643667281273,0.9881239097803531,68.25320764240466,61.14671123416452,5.127239647718937,3.608166316237585
327397.4074164,6071566.0,810625.0,1711217311744.0,-512.0,0.3139178454875946,272.0,0.1667688488960266,-15680.0,9.613734245300293,2662.0,3876.964111328125,2541.0,1861.5384521484375,35535.0,327.4166564941406,3.0542125701904297,0.9710614383220673,0.29797001007354923,0.3295524367546284,-80.09162124191135,27.191568355255363,239.400715440458,19.940815918045622,12.513302451713287,-24.010191102776542,-40.78299978665326,15.509176150863217,-18.600084976252283,-0.3536736572738755,0.06966090713245504,0.9327713021786234,-0.1512565599444365,0.02706643667281273,0.9881239097803531,68.35497265379739,61.14671123416452,5.135394680107206,3.608166316237585
327397.507903,6071822.0,810632.8125,1711217311744.0,-496.0,0.3041079044342041,272.0,0.1667688488960266,-15648.0,9.594114303588867,2672.0,3891.5283203125,2557.0,1873.2601318359375,35534.0,327.57379150390625,3.0527472496032715,0.9710614383220673,0.2981753674373527,0.3286308530689719,-79.41567419600926,27.200131428970835,237.63215426882556,19.940815918045622,12.513302451713287,-24.010191102776542,-40.78299978665326,15.509176150863217,-18.600084976252283,-0.3536736572738755,0.06966090713245504,0.9327713021786234,-0.14970550708656985,0.02779996297000295,0.9883397306629027,68.35497265379739,61.26357618409501,5.135394680107206,3.6155450689903548
327397.6084579,6072078.0,810640.625,1711217311744.0,-496.0,0.3041079044342041,272.0,0.1667688488960266,-15664.0,9.603923797607422,2672.0,3891.5283203125,2570.0,1882.783935546875,35535.0,327.4166564941406,3.0542125701904297,0.9592945575714111,0.2994396059183114,0.3300539675320635,-79.90339253463426,27.21642745394673,240.8361054667427,19.940815918045622,12.513302451713287,-24.010191102776542,-40.78299978665326,15.509176150863217,-18.600084976252283,-0.3514597676494851,0.06864033351081052,0.9336833169438632,-0.14970550708656985,0.02779996297000295,0.9883397306629027,68.3467716827188,61.26357618409501,5.134790321398709,3.6155450689903548
327397.7094745,6072334.0,810648.4375,1711217311744.0,-528.0,0.3237277865409851,272.0,0.1667688488960266,-15712.0,9.633354187011719,2658.0,3871.138427734375,2545.0,1864.4688720703125,35534.0,327.57379150390625,3.0527472496032715,0.9592945575714111,0.29939761900353806,0.3303361563584777,-80.0290745614255,27.188213456692452,241.16452942523085,19.940815918045622,12.513302451713287,-24.010191102776542,-40.78299978665326,15.509176150863217,-18.600084976252283,-0.3514597676494851,0.06864033351081052,0.9336833169438632,-0.1499970986243553,0.02747114103306674,0.9883047135446722,68.3467716827188,61.40386917575991,5.134790321398709,3.623390796429839
327397.8104466,6072590.0,810656.25,1711217311744.0,-512.0,0.3139178454875946,256.0,0.1569589227437973,-15712.0,9.633354187011719,2671.0,3890.07177734375,2570.0,1882.783935546875,35534.0,327.57379150390625,3.0527472496032715,0.9592945575714111,0.2992308898611186,0.33047277361306415,-80.67426097425509,27.352225883966604,242.8832653443651,19.940815918045622,12.513302451713287,-24.010191102776542,-40.78299978665326,15.509176150863217,-18.600084976252283,-0.3514597676494851,0.06864033351081052,0.9336833169438632,-0.15140728913123142,0.028029453963200977,0.9880739762327799,68.3467716827188,61.280398359144996,5.134790321398709,3.6160984970770755
327397.9115904,6072846.0,810664.0625,1711217311744.0,-448.0,0.274678111076355,288.0,0.17657878994941711,-15712.0,9.633354187011719,2670.0,3888.615478515625,2568.0,1881.3187255859375,35532.0,327.8885498046875,3.049816846847534,0.9880124032497406,0.29990549339961675,0.3301993482139809,-80.92398842228977,27.596028465504325,244.55946697852931,19.940815918045622,12.513302451713287,-24.010191102776542,-40.78299978665326,15.509176150863217,-18.600084976252283,-0.35025315669638546,0.06981515037969267,0.9340495548961404,-0.15140728913123142,0.028029453963200977,0.9880739762327799,68.40398036846213,61.280398359144996,5.138586130700447,3.6160984970770755
327398.0124867,6073102.0,810671.875,1711217311744.0,-480.0,0.2942979633808136,256.0,0.1569589227437973,-15728.0,9.643163681030273,2674.0,3894.44091796875,2583.0,1892.3077392578125,35533.0,327.7310791015625,3.0512821674346924,0.9880124032497406,0.299858392797025,0.3309149228755892,-81.0098839675204,27.450989772036237,244.77128918115568,19.940815918045622,12.513302451713287,-24.010191102776542,-40.78299978665326,15.509176150863217,-18.600084976252283,-0.35025315669638546,0.06981515037969267,0.9340495548961404,-0.15163207938237833,0.026903420010825983,0.9880708064171804,68.40398036846213,61.343166714308836,5.138586130700447,3.6190565470743485
327398.1134817,6073358.0,810679.6875,1711217311744.0,-544.0,0.3335376977920532,272.0,0.1667688488960266,-15664.0,9.603923797607422,2661.0,3875.5078125,2558.0,1873.99267578125,35533.0,327.7310791015625,3.0512821674346924,0.9697108268737793,0.3000112014319158,0.33259885808150946,-81.10600013247074,27.1098664265713,245.31469482645554,19.940815918045622,12.513302451713287,-24.010191102776542,-40.78299978665326,15.509176150863217,-18.600084976252283,-0.35001662600149264,0.06717251643373758,0.9343319616487977,-0.15163207938237833,0.026903420010825983,0.9880708064171804,68.3094500879077,61.343166714308836,5.131724307984057,3.6190565470743485
327398.2145538,6073614.0,810687.5,1711217311744.0,-560.0,0.3433476388454437,240.0,0.1471489816904068,-15520.0,9.515634536743164,2663.0,3878.42041015625,2560.0,1875.4578857421875,35532.0,327.8885498046875,3.049816846847534,0.9697108268737793,0.2999120623154352,0.33345820142650606,-81.38361490276651,26.986487517530207,246.03689788805832,19.940815918045622,12.513302451713287,-24.010191102776542,-40.78299978665326,15.509176150863217,-18.600084976252283,-0.35001662600149264,0.06717251643373758,0.9343319616487977,-0.1522711130231452,0.025759088692663194,0.9880030250401138,68.3094500879077,61.56994379461924,5.131724307984057,3.6328122724589504
327398.3154848,6073870.0,810695.3125,1711217311744.0,-560.0,0.3433476388454437,256.0,0.1569589227437973,-15568.0,9.545063972473145,2673.0,3892.984619140625,2571.0,1883.5164794921875,35532.0,327.8885498046875,3.049816846847534,0.9680377840995789,0.3002377494592328,0.33422607367174095,-81.52777390163392,26.898219618471256,246.9463156675011,19.940815918045622,12.513302451713287,-24.010191102776542,-40.78299978665326,15.509176150863217,-18.600084976252283,-0.3494523249259357,0.06623938916519036,0.9346097666549824,-0.1522711130231452,0.025759088692663194,0.9880030250401138,68.36965220754456,61.56994379461924,5.136145438339156,3.6328122724589504
327398.4164557,6074126.0,810703.125,1711217311744.0,-560.0,0.3433476388454437,256.0,0.1569589227437973,-15664.0,9.603923797607422,2671.0,3890.07177734375,2581.0,1890.842529296875,35532.0,327.8885498046875,3.049816846847534,0.9680377840995789,0.30023415945878046,0.33479237436315024,-81.45900802428025,26.741368810964286,246.74648436701773,19.940815918045622,12.513302451713287,-24.010191102776542,-40.78299978665326,15.509176150863217,-18.600084976252283,-0.3494523249259357,0.06623938916519036,0.9346097666549824,-0.15215893644833056,0.024704141401345015,0.9880472475830976,68.36965220754456,61.35426091057716,5.136145438339156,3.6201333386228267
327398.5174359,6074382.0,810710.9375,1711217311744.0,-560.0,0.3433476388454437,256.0,0.1569589227437973,-15632.0,9.584303855895996,2655.0,3866.769287109375,2551.0,1868.864501953125,35532.0,327.8885498046875,3.049816846847534,0.9750448763370514,0.3004103237820806,0.3343734704681892,-81.51829495198733,26.88416157644467,247.16289585473567,19.940815918045622,12.513302451713287,-24.010191102776542,-40.78299978665326,15.509176150863217,-18.600084976252283,-0.3491290994294822,0.06712474319699277,0.9346673958057468,-0.15215893644833056,0.024704141401345015,0.9880472475830976,68.23267908327485,61.35426091057716,5.125533639282699,3.6201333386228267
