timestamp,Timestamp RAW (no units)_003,Timestamp CAL (mSecs)_003,System Timestamp CAL (mSecs)_003,Wide Range Accelerometer X RAW (no units)_003,Wide Range Accelerometer X CAL (m/(sec ^2))_003,Wide Range Accelerometer Y RAW (no units)_003,Wide Range Accelerometer Y CAL (m/(sec ^2))_003,Wide Range Accelerometer Z RAW (no units)_003,Wide Range Accelerometer Z CAL (m/(sec ^2))_003,VSenseBatt RAW (no units)_003,VSenseBatt CAL (m Volts)_003,Internal ADC A13 RAW (no units)_003,Internal ADC A13 CAL (m Volts)_003,GSR RAW (no units)_003,GSR CAL (kOhms)_003,GSR Conductance CAL (u Siemens)_003,confidence_003,norm_pos_x_003,norm_pos_y_003,gaze_point_3d_x_003,gaze_point_3d_y_003,gaze_point_3d_z_003,eye_center0_3d_x_003,eye_center0_3d_y_003,eye_center0_3d_z_003,eye_center1_3d_x_003,eye_center1_3d_y_003,eye_center1_3d_z_003,gaze_normal0_x_003,gaze_normal0_y_003,gaze_normal0_z_003,gaze_normal1_x_003,gaze_normal1_y_003,gaze_normal1_z_003,diameter0_2d_003,diameter1_2d_003,diameter0_3d_003,diameter1_3d_003
410674.2262078,7691696.0,2099211.0,1711300673536.0,-192.0,0.11771918833255768,0.0,0.0,-17584.0,10.781115531921387,2759.0,4018.23583984375,2490.0,1824.17578125,34875.0,479.115478515625,2.08717942237854,0.9378297626972198,0.5043013178423233,0.16624607789549306,3.267828427890894,53.15592258129523,201.49961441765703,19.76014329543384,16.3202747584833,-18.637684684981533,-40.09961877090083,14.366260969267675,-21.36716545882892,-0.0742372369946779,0.18727816640290204,0.9794976881198664,0.18879517981250704,0.14562458150753887,0.9711590298917667,34.28047055141427,35.61890184162452,2.201795497066484,2.708208125163459
410674.2927329,7691952.0,2099218.75,1711300673536.0,-192.0,0.11771918833255768,32.0,0.019619865342974663,-17536.0,10.751686096191406,2768.0,4031.343505859375,2522.0,1847.6190185546875,34876.0,478.7793884277344,2.0886447429656982,0.9378297626972198,0.5030906688170814,0.16334950609782029,2.8318815688033947,53.13189535571508,199.23295288550176,19.76014329543384,16.3202747584833,-18.637684684981533,-40.09961877090083,14.366260969267675,-21.36716545882892,-0.0769697314731373,0.19036771352539583,0.9786908572598735,0.18879517981250704,0.14562458150753887,0.9711590298917667,34.20876375332125,35.61890184162452,2.1971447794130525,2.708208125163459
410674.3596843,7692208.0,2099226.5,1711300673536.0,-176.0,0.10790925472974777,48.0,0.02942979708313942,-17584.0,10.781115531921387,2761.0,4021.148681640625,2508.0,1837.3626708984375,34875.0,479.115478515625,2.08717942237854,0.967107504606247,0.502646356937082,0.16307104056055144,2.705419981065198,53.5956125531575,200.76440425153794,19.76014329543384,16.3202747584833,-18.637684684981533,-40.09961877090083,14.366260969267675,-21.36716545882892,-0.0769697314731373,0.19036771352539583,0.9786908572598735,0.18696566057157865,0.14740581160492502,0.9712442372915921,34.20876375332125,35.3695659407637,2.1971447794130525,2.6893507034520794
410674.4270594,7692464.0,2099234.5,1711300673536.0,-192.0,0.11771918833255768,48.0,0.02942979708313942,-17600.0,10.790925979614258,2755.0,4012.41015625,2508.0,1837.3626708984375,34876.0,478.7793884277344,2.0886447429656982,0.967107504606247,0.5003424031726476,0.16089478716038397,1.8963201563798417,52.89907548107243,196.56239542173802,19.76014329543384,16.3202747584833,-18.637684684981533,-40.09961877090083,14.366260969267675,-21.36716545882892,-0.08212580776245225,0.19057094918981793,0.9782321120389867,0.18696566057157865,0.14740581160492502,0.9712442372915921,34.559559734908355,35.3695659407637,2.2196063815321927,2.6893507034520794
410674.4947457,7692720.0,2099242.25,1711300673536.0,-272.0,0.1667688488960266,32.0,0.019619865342974663,-17616.0,10.800735473632812,2769.0,4032.800048828125,2520.0,1846.15380859375,34875.0,479.115478515625,2.08717942237854,0.9578012526035309,0.49925287739881263,0.1625341919827954,1.569916625378065,53.62115056025466,200.46839648107124,19.76014329543384,16.3202747584833,-18.637684684981533,-40.09961877090083,14.366260969267675,-21.36716545882892,-0.08212580776245225,0.19057094918981793,0.9782321120389867,0.18240869775256885,0.14794268217160175,0.9720288214739748,34.559559734908355,35.45016072113324,2.2196063815321927,2.6952597042765194
410674.5625845,7692976.0,2099250.0,1711300673536.0,-240.0,0.1471489816904068,32.0,0.019619865342974663,-17600.0,10.790925979614258,2768.0,4031.343505859375,2529.0,1852.7471923828125,34876.0,478.7793884277344,2.0886447429656982,0.9578012526035309,0.4992657515531455,0.16092158264267542,1.5747996188225937,53.94496155691404,200.47144955730238,19.76014329543384,16.3202747584833,-18.637684684981533,-40.09961877090083,14.366260969267675,-21.36716545882892,-0.08211243411598082,0.1933360406301328,0.977690504994813,0.18240869775256885,0.14794268217160175,0.9720288214739748,34.42979734282094,35.45016072113324,2.211816594745006,2.6952597042765194
410674.6296784,7693232.0,2099257.75,1711300673536.0,-192.0,0.11771918833255768,96.0,0.05885959416627884,-17728.0,10.869405746459961,2767.0,4029.88720703125,2535.0,1857.142822265625,34876.0,478.7793884277344,2.0886447429656982,0.9566927552223206,0.49906309018082756,0.16205130856259742,1.5129097208047249,53.93615885716011,201.28361747305155,19.76014329543384,16.3202747584833,-18.637684684981533,-40.09961877090083,14.366260969267675,-21.36716545882892,-0.08211243411598082,0.1933360406301328,0.977690504994813,0.18154173426437786,0.14667493570088816,0.972383186792852,34.42979734282094,35.4476040322991,2.211816594745006,2.695202910006857
410674.6977261,7693488.0,2099265.5,1711300673536.0,-192.0,0.11771918833255768,80.0,0.04904966428875923,-17680.0,10.839975357055664,2753.0,4009.497314453125,2505.0,1835.164794921875,34876.0,478.7793884277344,2.0886447429656982,0.9566927552223206,0.49814880528646677,0.1618794248250809,1.1966705214906934,53.51880246181861,199.60000183810317,19.76014329543384,16.3202747584833,-18.637684684981533,-40.09961877090083,14.366260969267675,-21.36716545882892,-0.08414748462154664,0.1922441315512861,0.9777327828788183,0.18154173426437786,0.14667493570088816,0.972383186792852,34.558011209712575,35.4476040322991,2.2200172371951723,2.695202910006857
410674.7657269,7693744.0,2099273.5,1711300673536.0,-160.0,0.09809932857751846,48.0,0.02942979708313942,-17680.0,10.839975357055664,2769.0,4032.800048828125,2529.0,1852.7471923828125,34876.0,478.7793884277344,2.0886447429656982,0.9329039752483368,0.4984042829840528,0.16054654799772183,1.2754708997986555,53.515338998071734,198.59994186885496,19.76014329543384,16.3202747584833,-18.637684684981533,-40.09961877090083,14.366260969267675,-21.36716545882892,-0.08414748462154664,0.1922441315512861,0.9777327828788183,0.18263279476781527,0.1481198354030832,0.9719597608108376,34.558011209712575,35.35945158668362,2.2200172371951723,2.6890259342795693
410674.8335844,7694000.0,2099281.25,1711300673536.0,-160.0,0.09809932857751846,112.0,0.06866952776908875,-17616.0,10.800735473632812,2770.0,4034.25634765625,2530.0,1853.4798583984375,34875.0,479.115478515625,2.08717942237854,0.9329039752483368,0.4972258119058619,0.1598643361555847,0.8766285666705365,53.078689442224416,196.48380812687626,19.76014329543384,16.3202747584833,-18.637684684981533,-40.09961877090083,14.366260969267675,-21.36716545882892,-0.08676992535126095,0.19162030764697136,0.9776260214170942,0.18263279476781527,0.1481198354030832,0.9719597608108376,34.58278847917014,35.35945158668362,2.2216859962223956,2.6890259342795693
410674.9016453,7694256.0,2099289.0,1711300673536.0,-192.0,0.11771918833255768,112.0,0.06866952776908875,-17632.0,10.810545921325684,2770.0,4034.25634765625,2546.0,1865.201416015625,34877.0,478.4437561035156,2.0901098251342773,0.9445343017578125,0.49746659295723034,0.15941225962638916,0.9513280474722663,52.93691771134792,195.63113247590093,19.76014329543384,16.3202747584833,-18.637684684981533,-40.09961877090083,14.366260969267675,-21.36716545882892,-0.08676992535126095,0.19162030764697136,0.9776260214170942,0.18364447639647652,0.14814671919441053,0.9717650209186358,34.58278847917014,35.450128522844615,2.2216859962223956,2.696174289128032
410674.9686664,7694512.0,2099297.0,1711300673536.0,-176.0,0.10790925472974777,80.0,0.04904966428875923,-17632.0,10.810545921325684,2753.0,4009.497314453125,2502.0,1832.967041015625,34875.0,479.115478515625,2.08717942237854,0.9445343017578125,0.4967884745227007,0.1559903207884209,0.7264205938265498,53.27033021722913,194.40100976382445,19.76014329543384,16.3202747584833,-18.637684684981533,-40.09961877090083,14.366260969267675,-21.36716545882892,-0.08830577204502822,0.19640922596005161,0.9765375090498598,0.18364447639647652,0.14814671919441053,0.9717650209186358,34.4854698051427,35.450128522844615,2.2160568341067965,2.696174289128032
410675.0357019,7694768.0,2099304.75,1711300673536.0,-160.0,0.09809932857751846,96.0,0.05885959416627884,-17600.0,10.790925979614258,2760.0,4019.6923828125,2513.0,1841.025634765625,34876.0,478.7793884277344,2.0886447429656982,0.967589795589447,0.497095213228111,0.1558100273529598,0.8214122912582322,53.022112352757944,193.3672131162773,19.76014329543384,16.3202747584833,-18.637684684981533,-40.09961877090083,14.366260969267675,-21.36716545882892,-0.08830577204502822,0.19640922596005161,0.9765375090498598,0.18492444789298226,0.1475224425548209,0.9716172484647106,34.4854698051427,35.699322101413486,2.2160568341067965,2.7149567654299442
410675.102672,7695024.0,2099312.5,1711300673536.0,-128.0,0.07847946137189865,48.0,0.02942979708313942,-17648.0,10.820355415344238,2756.0,4013.86669921875,2487.0,1821.97802734375,34875.0,479.115478515625,2.08717942237854,0.967589795589447,0.49573725340396735,0.15397721095240557,0.37941549665513286,52.73445778938472,191.03735946800464,19.76014329543384,16.3202747584833,-18.637684684981533,-40.09961877090083,14.366260969267675,-21.36716545882892,-0.09132715297766165,0.19746434761804693,0.9760467112535004,0.18492444789298226,0.1475224425548209,0.9716172484647106,34.439486171651346,35.699322101413486,2.2130315224964168,2.7149567654299442
410675.1696547,7695280.0,2099320.25,1711300673536.0,-144.0,0.08828939497470856,96.0,0.05885959416627884,-17680.0,10.839975357055664,2769.0,4032.800048828125,2528.0,1852.0146484375,34877.0,478.4437561035156,2.0901098251342773,0.9187460243701935,0.4953925651774919,0.15358631382008647,0.2712157306012646,53.111419948003245,192.1297397139675,19.76014329543384,16.3202747584833,-18.637684684981533,-40.09961877090083,14.366260969267675,-21.36716545882892,-0.09132715297766165,0.19746434761804693,0.9760467112535004,0.1834960351008948,0.1492105645394524,0.9716302859277643,34.439486171651346,35.69396899649114,2.2130315224964168,2.7148765510077544
410675.2366813,7695536.0,2099328.0,1711300673536.0,-96.0,0.05885959416627884,64.0,0.039239730685949326,-17648.0,10.820355415344238,2751.0,4006.584716796875,2490.0,1824.17578125,34875.0,479.115478515625,2.08717942237854,0.9187460243701935,0.49508827546496176,0.15201227817707064,0.17331139205735546,53.26586756315093,191.5916657249413,19.76014329543384,16.3202747584833,-18.637684684981533,-40.09961877090083,14.366260969267675,-21.36716545882892,-0.09201485723193496,0.19967565952602273,0.9755321096926715,0.1834960351008948,0.1492105645394524,0.9716302859277643,34.54327240745474,35.69396899649114,2.2202422695593453,2.7148765510077544
410675.3037236,7695792.0,2099336.0,1711300673536.0,-144.0,0.08828939497470856,128.0,0.07847946137189865,-17616.0,10.800735473632812,2772.0,4037.169189453125,2530.0,1853.4798583984375,34876.0,478.7793884277344,2.0886447429656982,0.9528051018714905,0.49428898732653737,0.15401313617987944,-0.08319745392212319,53.65242747681198,194.388435007306,19.76014329543384,16.3202747584833,-18.637684684981533,-40.09961877090083,14.366260969267675,-21.36716545882892,-0.09201485723193496,0.19967565952602273,0.9755321096926715,0.18011865976343303,0.14831023828431783,0.9723997848750655,34.54327240745474,35.565131112709786,2.2202422695593453,2.7049070428830313
410675.3707425,7696048.0,2099343.75,1711300673536.0,-176.0,0.10790925472974777,80.0,0.04904966428875923,-17632.0,10.810545921325684,2767.0,4029.88720703125,2525.0,1849.81689453125,34875.0,479.115478515625,2.08717942237854,0.9528051018714905,0.49472398849348653,0.15420596915669493,0.05797663832501243,53.82396356414737,195.14693023162573,19.76014329543384,16.3202747584833,-18.637684684981533,-40.09961877090083,14.366260969267675,-21.36716545882892,-0.09105154082458611,0.20000588245701492,0.9755548492504454,0.18011865976343303,0.14831023828431783,0.9723997848750655,34.773145416421336,35.565131112709786,2.2352204948108496,2.7049070428830313
410675.4376454,7696304.0,2099351.5,1711300673536.0,-144.0,0.08828939497470856,48.0,0.02942979708313942,-17616.0,10.800735473632812,2768.0,4031.343505859375,2537.0,1858.6080322265625,34876.0,478.7793884277344,2.0886447429656982,0.9652028977870941,0.4952394904822614,0.15240511966391335,0.22356630107636732,53.659460008359574,193.28205527473267,19.76014329543384,16.3202747584833,-18.637684684981533,-40.09961877090083,14.366260969267675,-21.36716545882892,-0.09105154082458611,0.20000588245701492,0.9755548492504454,0.18230768338807202,0.14973905553784173,0.9717726708568778,34.773145416421336,35.50060306199673,2.2352204948108496,2.700485957966646
410675.5048094,7696560.0,2099359.5,1711300673536.0,-176.0,0.10790925472974777,80.0,0.04904966428875923,-17568.0,10.771306037902832,2757.0,4015.322998046875,2508.0,1837.3626708984375,34875.0,479.115478515625,2.08717942237854,0.9652028977870941,0.49437965217560215,0.14993997410262205,-0.053211316189415214,53.71858023051273,191.78083788479677,19.76014329543384,16.3202747584833,-18.637684684981533,-40.09961877090083,14.366260969267675,-21.36716545882892,-0.09297527469940028,0.20288839539404674,0.9747778707526141,0.18230768338807202,0.14973905553784173,0.9717726708568778,34.49276207391752,35.50060306199673,2.217493929360391,2.700485957966646
410675.5717114,7696816.0,2099367.25,1711300673536.0,-144.0,0.08828939497470856,64.0,0.039239730685949326,-17536.0,10.751686096191406,2753.0,4009.497314453125,2499.0,1830.769287109375,34876.0,478.7793884277344,2.0886447429656982,0.9400810897350311,0.49485131529585535,0.14738312473941317,0.09685856450094832,53.72588629731413,190.05734884515067,19.76014329543384,16.3202747584833,-18.637684684981533,-40.09961877090083,14.366260969267675,-21.36716545882892,-0.09297527469940028,0.20288839539404674,0.9747778707526141,0.18432315793859308,0.1525491745319159,0.9709550570428971,34.49276207391752,35.59648074476713,2.217493929360391,2.7082153380478653
410675.6387059,7697072.0,2099375.0,1711300673536.0,-128.0,0.07847946137189865,64.0,0.039239730685949326,-17632.0,10.810545921325684,2762.0,4022.605224609375,2504.0,1834.4322509765625,34875.0,479.115478515625,2.08717942237854,0.9400810897350311,0.49472718830859314,0.14942371471940075,0.05742155568596807,53.28612899061632,189.88429513304098,19.76014329543384,16.3202747584833,-18.637684684981533,-40.09961877090083,14.366260969267675,-21.36716545882892,-0.09322911382424898,0.19923617508693955,0.9755066780254616,0.18432315793859308,0.1525491745319159,0.9709550570428971,34.91470629810063,35.59648074476713,2.2444227333387508,2.7082153380478653
410675.7056626,7697328.0,2099382.75,1711300673536.0,-160.0,0.09809932857751846,48.0,0.02942979708313942,-17712.0,10.85959529876709,2769.0,4032.800048828125,2524.0,1849.084228515625,34875.0,479.115478515625,2.08717942237854,0.9354044497013092,0.4949037651847751,0.14915400994144412,0.11302631128943297,53.1734917211229,189.29951538739002,19.76014329543384,16.3202747584833,-18.637684684981533,-40.09961877090083,14.366260969267675,-21.36716545882892,-0.09322911382424898,0.19923617508693955,0.9755066780254616,0.18506376070737984,0.15246097096987116,0.9708280263794232,34.91470629810063,35.77970256514802,2.2444227333387508,2.722113869121216
410675.7729005,7697584.0,2099390.5,1711300673536.0,-192.0,0.11771918833255768,48.0,0.02942979708313942,-17696.0,10.849785804748535,2757.0,4015.322998046875,2512.0,1840.2930908203125,34875.0,479.115478515625,2.08717942237854,0.9354044497013092,0.49517422815576484,0.14878305928231406,0.1989419077882424,53.36824422590442,189.74016303526437,19.76014329543384,16.3202747584833,-18.637684684981533,-40.09961877090083,14.366260969267675,-21.36716545882892,-0.0926358650593614,0.200276174448981,0.9753502193841888,0.18506376070737984,0.15246097096987116,0.9708280263794232,34.67442122934289,35.77970256514802,2.22960843533348,2.722113869121216
410675.8404954,7697840.0,2099398.5,1711300673536.0,-160.0,0.09809932857751846,80.0,0.04904966428875923,-17616.0,10.800735473632812,2759.0,4018.23583984375,2507.0,1836.6300048828125,34874.0,479.4520568847656,2.085714340209961,0.9761379659175873,0.49534394949618415,0.14767028643633862,0.25190672648409596,53.40461241851669,189.11464782384726,19.76014329543384,16.3202747584833,-18.637684684981533,-40.09961877090083,14.366260969267675,-21.36716545882892,-0.0926358650593614,0.200276174448981,0.9753502193841888,0.1857907064997444,0.15379060814866674,0.9704793981448494,34.67442122934289,35.52839125302241,2.22960843533348,2.7032957275154152
410675.907712,7698096.0,2099406.25,1711300673536.0,-208.0,0.12752912938594818,96.0,0.05885959416627884,-17712.0,10.85959529876709,2768.0,4031.343505859375,2526.0,1850.5494384765625,34875.0,479.115478515625,2.08717942237854,0.9761379659175873,0.49483190765621227,0.1470753346788386,0.08984799911446828,53.278203675225924,188.26670947413072,19.76014329543384,16.3202747584833,-18.637684684981533,-40.09961877090083,14.366260969267675,-21.36716545882892,-0.09377153408639288,0.2005084206388049,0.9751939666794583,0.1857907064997444,0.15379060814866674,0.9704793981448494,34.78440222892431,35.52839125302241,2.2365300751714794,2.7032957275154152
410675.9747197,7698352.0,2099414.0,1711300673536.0,-144.0,0.08828939497470856,48.0,0.02942979708313942,-17600.0,10.790925979614258,2760.0,4019.6923828125,2505.0,1835.164794921875,34875.0,479.115478515625,2.08717942237854,0.9479193985462189,0.49500365849561423,0.1467148030794707,0.14341074822711342,53.18603578228961,187.69953347289226,19.76014329543384,16.3202747584833,-18.637684684981533,-40.09961877090083,14.366260969267675,-21.36716545882892,-0.09377153408639288,0.2005084206388049,0.9751939666794583,0.18651173194387813,0.1538667164811572,0.9703290201816096,34.78440222892431,35.71106382735602,2.2365300751714794,2.717307196435265
410676.0415831,7698608.0,2099422.0,1711300673536.0,-160.0,0.09809932857751846,32.0,0.019619865342974663,-17680.0,10.839975357055664,2752.0,4008.041015625,2497.0,1829.3040771484375,34875.0,479.115478515625,2.08717942237854,0.9479193985462189,0.495320757500126,0.1470881589576174,0.24345501934193337,53.2628465781861,188.2209749121077,19.76014329543384,16.3202747584833,-18.637684684981533,-40.09961877090083,14.366260969267675,-21.36716545882892,-0.09306835772975613,0.2003564892228513,0.9752925499642554,0.18651173194387813,0.1538667164811572,0.9703290201816096,34.71805486688469,35.71106382735602,2.232319304009679,2.717307196435265
410676.1087504,7698864.0,2099429.75,1711300673536.0,-144.0,0.08828939497470856,32.0,0.019619865342974663,-17696.0,10.849785804748535,2761.0,4021.148681640625,2494.0,1827.106201171875,34874.0,479.4520568847656,2.085714340209961,0.9723654687404633,0.4946798877116959,0.15014312298996102,0.0425735163834684,53.319338121092386,190.4947226019777,19.76014329543384,16.3202747584833,-18.637684684981533,-40.09961877090083,14.366260969267675,-21.36716545882892,-0.09306835772975613,0.2003564892228513,0.9752925499642554,0.18378700183978663,0.15074664794259418,0.9713381419921767,34.71805486688469,35.65874522843005,2.232319304009679,2.712973245784379
410676.1758561,7699120.0,2099437.5,1711300673536.0,-144.0,0.08828939497470856,48.0,0.02942979708313942,-17712.0,10.85959529876709,2767.0,4029.88720703125,2530.0,1853.4798583984375,34875.0,479.115478515625,2.08717942237854,0.9723654687404633,0.49601195688848987,0.15271372839781283,0.47127454355804943,53.4603667795146,192.78007885524664,19.76014329543384,16.3202747584833,-18.637684684981533,-40.09961877090083,14.366260969267675,-21.36716545882892,-0.09010001860244043,0.19801077290210373,0.9760500604285373,0.18378700183978663,0.15074664794259418,0.9713381419921767,34.92053339604873,35.65874522843005,2.245889100596364,2.712973245784379
410676.2436747,7699376.0,2099445.25,1711300673536.0,-144.0,0.08828939497470856,32.0,0.019619865342974663,-17616.0,10.800735473632812,2766.0,4028.4306640625,2518.0,1844.6885986328125,34874.0,479.4520568847656,2.085714340209961,0.9327202141284943,0.4960422639859366,0.152526260927756,0.480750176252279,53.4649975936691,192.66578842724346,19.76014329543384,16.3202747584833,-18.637684684981533,-40.09961877090083,14.366260969267675,-21.36716545882892,-0.09010001860244043,0.19801077290210373,0.9760500604285373,0.18391681490852846,0.1509658828167297,0.9712795207453248,34.92053339604873,35.787128192739544,2.245889100596364,2.7224381128200252
410676.3106635,7699632.0,2099453.0,1711300673536.0,-160.0,0.09809932857751846,48.0,0.02942979708313942,-17616.0,10.800735473632812,2757.0,4015.322998046875,2519.0,1845.4212646484375,34875.0,479.115478515625,2.08717942237854,0.9327202141284943,0.49471072354624157,0.15064553159048222,0.05234747315094168,53.19495434945805,190.39454668725966,19.76014329543384,16.3202747584833,-18.637684684981533,-40.09961877090083,14.366260969267675,-21.36716545882892,-0.093060351938588,0.1991861180225012,0.9755330139386326,0.18391681490852846,0.1509658828167297,0.9712795207453248,34.44626943060698,35.787128192739544,2.2155200240762456,2.7224381128200252
410676.3776917,7699888.0,2099461.0,1711300673536.0,-192.0,0.11771918833255768,32.0,0.019619865342974663,-17584.0,10.781115531921387,2769.0,4032.800048828125,2520.0,1846.15380859375,34874.0,479.4520568847656,2.085714340209961,0.9471315145492554,0.4941998842992622,0.15315469537710924,-0.11086964792426457,53.22729318511986,192.24726716632776,19.76014329543384,16.3202747584833,-18.637684684981533,-40.09961877090083,14.366260969267675,-21.36716545882892,-0.093060351938588,0.1991861180225012,0.9755330139386326,0.18173779438668616,0.14835260718496526,0.972092011094056,34.44626943060698,35.77091977187903,2.2155200240762456,2.7212693239436407
410676.4447101,7700144.0,2099468.75,1711300673536.0,-192.0,0.11771918833255768,32.0,0.019619865342974663,-17600.0,10.790925979614258,2767.0,4029.88720703125,2541.0,1861.5384521484375,34875.0,479.115478515625,2.08717942237854,0.9471315145492554,0.4955709719358102,0.1576133146176657,0.33243048449919677,53.02554781818885,194.6644920313172,19.76014329543384,16.3202747584833,-18.637684684981533,-40.09961877090083,14.366260969267675,-21.36716545882892,-0.08998670812068166,0.19368623338474317,0.9769278557594896,0.18173779438668616,0.14835260718496526,0.972092011094056,34.93275132659787,35.77091977187903,2.246587165414155,2.7212693239436407
410676.5116354,7700400.0,2099476.5,1711300673536.0,-176.0,0.10790925472974777,48.0,0.02942979708313942,-17568.0,10.771306037902832,2766.0,4028.4306640625,2526.0,1850.5494384765625,34874.0,479.4520568847656,2.085714340209961,0.9482725262641907,0.4959663779291029,0.15528602174082606,0.45729579065696413,53.06839781895422,193.16660120946526,19.76014329543384,16.3202747584833,-18.637684684981533,-40.09961877090083,14.366260969267675,-21.36716545882892,-0.08998670812068166,0.19368623338474317,0.9769278557594896,0.18343134491458568,0.1510176928078998,0.9713632678672821,34.93275132659787,35.58411121853829,2.246587165414155,2.707064397510052
410676.5786468,7700656.0,2099484.5,1711300673536.0,-128.0,0.07847946137189865,0.0,0.0,-17632.0,10.810545921325684,2757.0,4015.322998046875,2518.0,1844.6885986328125,34874.0,479.4520568847656,2.085714340209961,0.9482725262641907,0.4965587505497401,0.15731404817307337,0.6512023885086649,52.96120210990803,194.21380213132932,19.76014329543384,16.3202747584833,-18.637684684981533,-40.09961877090083,14.366260969267675,-21.36716545882892,-0.08865591769599204,0.19113534074591979,0.9775517427611812,0.18343134491458568,0.1510176928078998,0.9713632678672821,34.87398055732775,35.58411121853829,2.24244823320742,2.707064397510052
410676.6467181,7700912.0,2099492.25,1711300673536.0,-144.0,0.08828939497470856,32.0,0.019619865342974663,-17680.0,10.839975357055664,2768.0,4031.343505859375,2519.0,1845.4212646484375,34874.0,479.4520568847656,2.085714340209961,0.9599583446979523,0.4968006481985183,0.15841009103077164,0.7265814997241815,52.552934421237254,193.49552026697253,19.76014329543384,16.3202747584833,-18.637684684981533,-40.09961877090083,14.366260969267675,-21.36716545882892,-0.08865591769599204,0.19113534074591979,0.9775517427611812,0.1844176491516945,0.14847667137897547,0.9715682213501955,34.87398055732775,35.732305082468905,2.24244823320742,2.7188204768224744
410676.7136885,7701168.0,2099500.0,1711300673536.0,-160.0,0.09809932857751846,64.0,0.039239730685949326,-17600.0,10.790925979614258,2769.0,4032.800048828125,2533.0,1855.6776123046875,34874.0,479.4520568847656,2.085714340209961,0.9599583446979523,0.49569009292462685,0.15719902832398136,0.36521898477389314,52.26759555947535,191.5898819706501,19.76014329543384,16.3202747584833,-18.637684684981533,-40.09961877090083,14.366260969267675,-21.36716545882892,-0.0911236364475411,0.19151335957640322,0.9772507948241002,0.1844176491516945,0.14847667137897547,0.9715682213501955,34.59386559445421,35.732305082468905,2.224290478522983,2.7188204768224744
410676.7806588,7701424.0,2099507.75,1711300673536.0,-144.0,0.08828939497470856,128.0,0.07847946137189865,-17632.0,10.810545921325684,2763.0,4024.0615234375,2530.0,1853.4798583984375,34874.0,479.4520568847656,2.085714340209961,0.9295431971549988,0.49640972540539446,0.1547245115905299,0.5874156379582676,52.05547629692347,189.0913389749844,19.76014329543384,16.3202747584833,-18.637684684981533,-40.09961877090083,14.366260969267675,-21.36716545882892,-0.0911236364475411,0.19151335957640322,0.9772507948241002,0.1874547584297987,0.15040573209532496,0.9706898728712973,34.59386559445421,35.81380785671114,2.224290478522983,2.725002365797316
410676.8477236,7701680.0,2099515.5,1711300673536.0,-128.0,0.07847946137189865,48.0,0.02942979708313942,-17648.0,10.820355415344238,2754.0,4010.953857421875,2503.0,1833.6995849609375,34873.0,479.7890930175781,2.0842490196228027,0.9295431971549988,0.4976006408777103,0.15823710483214093,0.9722738350105686,51.94010548004321,191.11626644854448,19.76014329543384,16.3202747584833,-18.637684684981533,-40.09961877090083,14.366260969267675,-21.36716545882892,-0.0884564285582871,0.18735084627343118,0.9783021622419843,0.1874547584297987,0.15040573209532496,0.9706898728712973,34.69618806810705,35.81380785671114,2.2311226280166627,2.725002365797316
410676.9147586,7701936.0,2099523.5,1711300673536.0,-160.0,0.09809932857751846,64.0,0.039239730685949326,-17648.0,10.820355415344238,2767.0,4029.88720703125,2528.0,1852.0146484375,34874.0,479.4520568847656,2.085714340209961,0.9571062624454498,0.4975092089080169,0.16030848961443112,0.944988286678484,51.66641905275918,191.57061545505366,19.76014329543384,16.3202747584833,-18.637684684981533,-40.09961877090083,14.366260969267675,-21.36716545882892,-0.0884564285582871,0.18735084627343118,0.9783021622419843,0.18703600948328702,0.1472560751522131,0.9712534064225121,34.69618806810705,35.881360882448256,2.2311226280166627,2.7301736091282285
410676.9822284,7702192.0,2099531.25,1711300673536.0,-112.0,0.06866952776908875,80.0,0.04904966428875923,-17632.0,10.810545921325684,2742.0,3993.476806640625,2472.0,1810.989013671875,34873.0,479.7890930175781,2.0842490196228027,0.9571062624454498,0.49862886394916994,0.16161263335293719,1.3146897553048955,51.933240419997645,193.49338584208047,19.76014329543384,16.3202747584833,-18.637684684981533,-40.09961877090083,14.366260969267675,-21.36716545882892,-0.08596368939125415,0.18682865283133004,0.9786241865943608,0.18703600948328702,0.1472560751522131,0.9712534064225121,34.88639607022426,35.881360882448256,2.2427881800026674,2.7301736091282285
410677.0496745,7702448.0,2099539.0,1711300673536.0,-112.0,0.06866952776908875,48.0,0.02942979708313942,-17664.0,10.83016586303711,2766.0,4028.4306640625,2510.0,1838.827880859375,34874.0,479.4520568847656,2.085714340209961,0.9631192982196808,0.4986208827629204,0.1613319030186433,1.3122319421884363,51.988716642978694,193.4978569866481,19.76014329543384,16.3202747584833,-18.637684684981533,-40.09961877090083,14.366260969267675,-21.36716545882892,-0.08596368939125415,0.18682865283133004,0.9786241865943608,0.18700842520976751,0.14774399239334718,0.9711846176769057,34.88639607022426,35.71666912299449,2.2427881800026674,2.717405802875026
410677.116736,7702704.0,2099547.0,1711300673536.0,-160.0,0.09809932857751846,48.0,0.02942979708313942,-17680.0,10.839975357055664,2753.0,4009.497314453125,2485.0,1820.5128173828125,34872.0,480.1266174316406,2.0827839374542236,0.9631192982196808,0.499810279837538,0.1649164987475945,1.7123280008220476,51.85609399157731,195.60637559368308,19.76014329543384,16.3202747584833,-18.637684684981533,-40.09961877090083,14.366260969267675,-21.36716545882892,-0.08328952278396107,0.18253301646922926,0.9796655313386626,0.18700842520976751,0.14774399239334718,0.9711846176769057,34.82546825472497,35.71666912299449,2.238640557452762,2.717405802875026
410677.1842676,7702960.0,2099554.75,1711300673536.0,-128.0,0.07847946137189865,48.0,0.02942979708313942,-17616.0,10.800735473632812,2762.0,4022.605224609375,2512.0,1840.2930908203125,34873.0,479.7890930175781,2.0842490196228027,0.9648836553096771,0.5002109183665083,0.16523842298897462,1.8301367239620507,51.445923831348,194.29330014443127,19.76014329543384,16.3202747584833,-18.637684684981533,-40.09961877090083,14.366260969267675,-21.36716545882892,-0.08328952278396107,0.18253301646922926,0.9796655313386626,0.18865912706861446,0.14602230430326443,0.9711257490251577,34.82546825472497,35.540272810171125,2.238640557452762,2.703860430681196
410677.2517186,7703216.0,2099562.5,1711300673536.0,-160.0,0.09809932857751846,48.0,0.02942979708313942,-17472.0,10.712446212768555,2770.0,4034.25634765625,2516.0,1843.223388671875,34872.0,480.1266174316406,2.0827839374542236,0.9648836553096771,0.5000254408762658,0.16758430820549108,1.7665960559052394,50.91377715445401,193.9956626939786,19.76014329543384,16.3202747584833,-18.637684684981533,-40.09961877090083,14.366260969267675,-21.36716545882892,-0.08367920877236167,0.17826370845547815,0.9804181966216927,0.18865912706861446,0.14602230430326443,0.9711257490251577,35.057966908452066,35.540272810171125,2.2531171680815567,2.703860430681196
410677.3188939,7703472.0,2099570.25,1711300673536.0,-160.0,0.09809932857751846,64.0,0.039239730685949326,-17520.0,10.741876602172852,2776.0,4042.994873046875,2552.0,1869.5970458984375,34873.0,479.7890930175781,2.0842490196228027,0.9686710834503174,0.49998862346674605,0.16691504353025421,1.7556128673577795,51.061259897514105,194.06516067377353,19.76014329543384,16.3202747584833,-18.637684684981533,-40.09961877090083,14.366260969267675,-21.36716545882892,-0.08367920877236167,0.17826370845547815,0.9804181966216927,0.18852023653054528,0.1472356907564578,0.9709695009555842,35.057966908452066,35.41098826239096,2.2531171680815567,2.6939874601759364
410677.3857222,7703728.0,2099578.0,1711300673536.0,-224.0,0.1373390555381775,48.0,0.02942979708313942,-17664.0,10.83016586303711,2760.0,4019.6923828125,2513.0,1841.025634765625,34872.0,480.1266174316406,2.0827839374542236,0.9686710834503174,0.5005918615313253,0.16860670543021994,1.9601679089812194,51.013705839737504,195.13098956824018,19.76014329543384,16.3202747584833,-18.637684684981533,-40.09961877090083,14.366260969267675,-21.36716545882892,-0.08232310697580698,0.1762973741414128,0.9808884452009273,0.18852023653054528,0.1472356907564578,0.9709695009555842,34.824758990504364,35.41098826239096,2.2382613612113738,2.6939874601759364
410677.4527362,7703984.0,2099586.0,1711300673536.0,-208.0,0.12752912938594818,48.0,0.02942979708313942,-17648.0,10.820355415344238,2770.0,4034.25634765625,2540.0,1860.805908203125,34872.0,480.1266174316406,2.0827839374542236,0.9560395181179047,0.5010185431497156,0.16833780028608136,2.083169670567445,50.6902215482511,193.69423346875627,19.76014329543384,16.3202747584833,-18.637684684981533,-40.09961877090083,14.366260969267675,-21.36716545882892,-0.08232310697580698,0.1762973741414128,0.9808884452009273,0.19028617464698855,0.1464181892628988,0.9707486212151886,34.824758990504364,35.53543337186129,2.2382613612113738,2.7037787467570613
410677.5196849,7704240.0,2099593.75,1711300673536.0,-224.0,0.1373390555381775,112.0,0.06866952776908875,-17600.0,10.790925979614258,2742.0,3993.476806640625,2474.0,1812.4542236328125,34872.0,480.1266174316406,2.0827839374542236,0.9560395181179047,0.5003588631163107,0.16739029117433912,1.860230321776985,50.57265314813009,192.55333944616748,19.76014329543384,16.3202747584833,-18.637684684981533,-40.09961877090083,14.366260969267675,-21.36716545882892,-0.08379709296781032,0.17691128987099064,0.9806530695033421,0.19028617464698855,0.1464181892628988,0.9707486212151886,34.80551098570283,35.53543337186129,2.2367425811363253,2.7037787467570613
410677.5867637,7704496.0,2099601.5,1711300673536.0,-208.0,0.12752912938594818,112.0,0.06866952776908875,-17648.0,10.820355415344238,2776.0,4042.994873046875,2528.0,1852.0146484375,34872.0,480.1266174316406,2.0827839374542236,0.9491778910160065,0.5009228233646994,0.1646489522297856,2.02040923620676,50.560154804096356,190.52321820337642,19.76014329543384,16.3202747584833,-18.637684684981533,-40.09961877090083,14.366260969267675,-21.36716545882892,-0.08379709296781032,0.17691128987099064,0.9806530695033421,0.1926623282335959,0.14926737040998467,0.9698455956545345,34.80551098570283,35.556575499764094,2.2367425811363253,2.7057586540741596
410677.6536911,7704752.0,2099609.5,1711300673536.0,-176.0,0.10790925472974777,16.0,0.009809932671487331,-17568.0,10.771306037902832,2758.0,4016.779541015625,2506.0,1835.8974609375,34871.0,480.4646301269531,2.0813186168670654,0.9491778910160065,0.5016839835488756,0.1665644148042611,2.2760340925461104,50.539647059598906,191.82312693346591,19.76014329543384,16.3202747584833,-18.637684684981533,-40.09961877090083,14.366260969267675,-21.36716545882892,-0.08208890220333961,0.1748070592226591,0.9811747572073878,0.1926623282335959,0.14926737040998467,0.9698455956545345,34.50114203001154,35.556575499764094,2.2168781761525427,2.7057586540741596
410677.7206689,7705008.0,2099617.25,1711300673536.0,-192.0,0.11771918833255768,32.0,0.019619865342974663,-17616.0,10.800735473632812,2769.0,4032.800048828125,2529.0,1852.7471923828125,34871.0,480.4646301269531,2.0813186168670654,0.9698463380336761,0.5014508457234548,0.16840248236664634,2.211117524956167,50.42379375622866,192.72217049573155,19.76014329543384,16.3202747584833,-18.637684684981533,-40.09961877090083,14.366260969267675,-21.36716545882892,-0.08208890220333961,0.1748070592226591,0.9811747572073878,0.19166706683469045,0.14692725041204036,0.9703999786569165,34.50114203001154,35.653549813137964,2.2168781761525427,2.713475245968698
410677.7876943,7705264.0,2099625.0,1711300673536.0,-160.0,0.09809932857751846,48.0,0.02942979708313942,-17664.0,10.83016586303711,2741.0,3992.0205078125,2476.0,1813.91943359375,34872.0,480.1266174316406,2.0827839374542236,0.9693760275840759,0.5014165861319684,0.16883564019229347,2.2015974205800983,50.37873338309247,192.86756700133435,19.76014329543384,16.3202747584833,-18.637684684981533,-40.09961877090083,14.366260969267675,-21.36716545882892,-0.08208890220333961,0.1748070592226591,0.9811747572073878,0.19151744659514594,0.14631456084149672,0.9705220847231842,34.50114203001154,35.58301580651412,2.2168781761525427,2.7076568201883515
410677.8546451,7705520.0,2099632.75,1711300673536.0,-176.0,0.10790925472974777,80.0,0.04904966428875923,-17632.0,10.810545921325684,2768.0,4031.343505859375,2504.0,1834.4322509765625,34870.0,480.8031005859375,2.0798535346984863,0.9693760275840759,0.5004216554963302,0.16736446642440217,1.86677812749301,50.213004738188474,191.1651131616582,19.76014329543384,16.3202747584833,-18.637684684981533,-40.09961877090083,14.366260969267675,-21.36716545882892,-0.08431169372952486,0.17580405903747295,0.9808080704839288,0.19151744659514594,0.14631456084149672,0.9705220847231842,34.82576601900447,35.58301580651412,2.2379646412301986,2.7076568201883515
410677.9214903,7705776.0,2099640.5,1711300673536.0,-208.0,0.12752912938594818,96.0,0.05885959416627884,-17648.0,10.820355415344238,2757.0,4015.322998046875,2503.0,1833.6995849609375,34871.0,480.4646301269531,2.0813186168670654,0.9699841439723969,0.5006964122618359,0.16612757716317406,1.9446514510704418,50.191848947391804,190.19209877142387,19.76014329543384,16.3202747584833,-18.637684684981533,-40.09961877090083,14.366260969267675,-21.36716545882892,-0.08431169372952486,0.17580405903747295,0.9808080704839288,0.1926722608608155,0.14753972579335198,0.9701079471933031,34.82576601900447,35.56533606378237,2.2379646412301986,2.7063603058664287
410677.9887493,7706032.0,2099648.5,1711300673536.0,-160.0,0.09809932857751846,64.0,0.039239730685949326,-17584.0,10.781115531921387,2769.0,4032.800048828125,2519.0,1845.4212646484375,34869.0,481.1420593261719,2.078388214111328,0.9699841439723969,0.500202492813795,0.16642228889721022,1.7806875500928872,49.920173101202735,189.37462813342884,19.76014329543384,16.3202747584833,-18.637684684981533,-40.09961877090083,14.366260969267675,-21.36716545882892,-0.085403972160797,0.17455629644933116,0.9809364204213498,0.1926722608608155,0.14753972579335198,0.9701079471933031,35.01618564354855,35.56533606378237,2.2499457335827855,2.7063603058664287
410678.0557002,7706288.0,2099656.25,1711300673536.0,-144.0,0.08828939497470856,64.0,0.039239730685949326,-17664.0,10.83016586303711,2768.0,4031.343505859375,2532.0,1854.945068359375,34870.0,480.8031005859375,2.0798535346984863,0.9699841439723969,0.5002786182545441,0.16885574293928585,1.8050849242970504,49.49996687480113,189.52119695544414,19.76014329543384,16.3202747584833,-18.637684684981533,-40.09961877090083,14.366260969267675,-21.36716545882892,-0.08521216968613562,0.1705356281092396,0.9816600662565267,0.1926722608608155,0.14753972579335198,0.9701079471933031,34.99175457485769,35.56533606378237,2.247789935611987,2.7063603058664287
410678.1227829,7706544.0,2099664.0,1711300673536.0,-192.0,0.11771918833255768,48.0,0.02942979708313942,-17632.0,10.810545921325684,2769.0,4032.800048828125,2528.0,1852.0146484375,34870.0,480.8031005859375,2.0798535346984863,0.9561820030212402,0.4992876914327983,0.17284012717512387,1.5193020207491372,49.64777967486143,193.0129464431513,19.76014329543384,16.3202747584833,-18.637684684981533,-40.09961877090083,14.366260969267675,-21.36716545882892,-0.08521216968613562,0.1705356281092396,0.9816600662565267,0.18850995081563615,0.14390296027488153,0.9714710167923757,34.99175457485769,35.6786216344792,2.247789935611987,2.7146150358252545
410678.189628,7706800.0,2099672.0,1711300673536.0,-176.0,0.10790925472974777,32.0,0.019619865342974663,-17696.0,10.849785804748535,2752.0,4008.041015625,2508.0,1837.3626708984375,34870.0,480.8031005859375,2.0798535346984863,0.9561820030212402,0.497067420938877,0.17179798682531,0.7925720294547425,48.88142361454099,189.27671035489016,19.76014329543384,16.3202747584833,-18.637684684981533,-40.09961877090083,14.366260969267675,-21.36716545882892,-0.09013331594338071,0.16897058340228202,0.9814911753560207,0.18850995081563615,0.14390296027488153,0.9714710167923757,34.960890958629875,35.6786216344792,2.245513412996536,2.7146150358252545
410678.2577849,7707056.0,2099679.75,1711300673536.0,-112.0,0.06866952776908875,32.0,0.019619865342974663,-17664.0,10.83016586303711,2766.0,4028.4306640625,2508.0,1837.3626708984375,34869.0,481.1420593261719,2.078388214111328,0.9091803729534149,0.49715448379235366,0.17147762676006129,0.818688098688698,48.864366051450816,188.9779434472921,19.76014329543384,16.3202747584833,-18.637684684981533,-40.09961877090083,14.366260969267675,-21.36716545882892,-0.09013331594338071,0.16897058340228202,0.9814911753560207,0.1888761260738757,0.14417272908275855,0.9713598886036808,34.960890958629875,35.68969019480454,2.245513412996536,2.7153797282131897
410678.3247744,7707312.0,2099687.5,1711300673536.0,-144.0,0.08828939497470856,48.0,0.02942979708313942,-17600.0,10.790925979614258,2741.0,3992.0205078125,2480.0,1816.849853515625,34870.0,480.8031005859375,2.0798535346984863,0.9091803729534149,0.4953187558758055,0.16732511249323467,0.2390676483763734,48.85486576628084,185.9744147252283,19.76014329543384,16.3202747584833,-18.637684684981533,-40.09961877090083,14.366260969267675,-21.36716545882892,-0.09422074880749183,0.1732634682200393,0.9803582105916792,0.1888761260738757,0.14417272908275855,0.9713598886036808,34.66887772679612,35.68969019480454,2.226996841166973,2.7153797282131897
410678.3917021,7707568.0,2099695.25,1711300673536.0,-176.0,0.10790925472974777,48.0,0.02942979708313942,-17568.0,10.771306037902832,2764.0,4025.51806640625,2487.0,1821.97802734375,34869.0,481.1420593261719,2.078388214111328,0.9536190927028656,0.49495170981435493,0.16712982175012459,0.126396929461281,49.185109521480676,187.09318675358634,19.76014329543384,16.3202747584833,-18.637684684981533,-40.09961877090083,14.366260969267675,-21.36716545882892,-0.09422074880749183,0.1732634682200393,0.9803582105916792,0.18735860010102204,0.14558520257444357,0.9714431037171162,34.66887772679612,35.42712347809063,2.226996841166973,2.695171577351359
410678.4589216,7707824.0,2099703.0,1711300673536.0,-176.0,0.10790925472974777,16.0,0.009809932671487331,-17664.0,10.83016586303711,2756.0,4013.86669921875,2498.0,1830.03662109375,34869.0,481.1420593261719,2.078388214111328,0.9536190927028656,0.49396953880733463,0.16379223677561783,-0.17761582540886955,49.38130007436925,185.49269316281158,19.76014329543384,16.3202747584833,-18.637684684981533,-40.09961877090083,14.366260969267675,-21.36716545882892,-0.09641489074013686,0.17745151863641856,0.9793952865810598,0.18735860010102204,0.14558520257444357,0.9714431037171162,34.54515729434288,35.42712347809063,2.2194222966036445,2.695171577351359
410678.5257679,7708080.0,2099711.0,1711300673536.0,-208.0,0.12752912938594818,64.0,0.039239730685949326,-17744.0,10.879215240478516,2765.0,4026.974365234375,2503.0,1833.6995849609375,34868.0,481.4814758300781,2.076923131942749,0.9025452733039856,0.4939136735769415,0.16560864562067268,-0.1950595491052134,49.1250014726446,185.7937945034808,19.76014329543384,16.3202747584833,-18.637684684981533,-40.09961877090083,14.366260969267675,-21.36716545882892,-0.09641489074013686,0.17745151863641856,0.9793952865810598,0.18709363712048965,0.1427601825163124,0.9719133198166058,34.54515729434288,35.80195669315685,2.2194222966036445,2.723686943150932
410678.5927388,7708336.0,2099718.75,1711300673536.0,-208.0,0.12752912938594818,80.0,0.04904966428875923,-17648.0,10.820355415344238,2772.0,4037.169189453125,2535.0,1857.142822265625,34869.0,481.1420593261719,2.078388214111328,0.9025452733039856,0.49264614966335935,0.16393388310173695,-0.5804778133651745,48.90361934671412,183.7950313295197,19.76592344414629,16.344754866486433,-18.624084718766852,-40.09961877090083,14.366260969267675,-21.36716545882892,-0.0992533607042459,0.178292852780791,0.9789588495111529,0.18709363712048965,0.1427601825163124,0.9719133198166058,34.826023573108166,35.80195669315685,2.237035887617686,2.723686943150932
410678.6596986,7708592.0,2099726.5,1711300673536.0,-192.0,0.11771918833255768,112.0,0.06866952776908875,-17552.0,10.761495590209961,2767.0,4029.88720703125,2529.0,1852.7471923828125,34868.0,481.4814758300781,2.076923131942749,0.9703961908817291,0.49043226418816827,0.16904885283660398,-1.305475371092287,49.87200433325431,191.0890388847608,19.76592344414629,16.344754866486433,-18.624084718766852,-40.09961877090083,14.366260969267675,-21.36716545882892,-0.0992533607042459,0.178292852780791,0.9789588495111529,0.17775154391893175,0.14095342242797118,0.9739283964133494,34.826023573108166,35.356644302770135,2.237035887617686,2.689790526399894
410678.7267617,7708848.0,2099734.5,1711300673536.0,-176.0,0.10790925472974777,80.0,0.04904966428875923,-17648.0,10.820355415344238,2760.0,4019.6923828125,2521.0,1846.886474609375,34868.0,481.4814758300781,2.076923131942749,0.9703961908817291,0.48732482705131436,0.16667886747806204,-2.2323055180135043,48.988594224208754,186.01498557254524,19.76592344414629,16.344754866486433,-18.624084718766852,-40.09961877090083,14.366260969267675,-21.36716545882892,-0.10607809012819928,0.17768405182891917,0.9783536254956138,0.17775154391893175,0.14095342242797118,0.9739283964133494,34.710707326281806,35.356644302770135,2.2305874800922076,2.689790526399894
410678.7936147,7709104.0,2099742.25,1711300673536.0,-192.0,0.11771918833255768,64.0,0.039239730685949326,-17632.0,10.810545921325684,2764.0,4025.51806640625,2514.0,1841.75830078125,34867.0,481.8213806152344,2.075457811355591,0.9954475462436676,0.4862600706607679,0.16956393362118527,-2.608957368160029,49.38554660921183,189.58415294582113,19.76592344414629,16.344754866486433,-18.624084718766852,-40.09961877090083,14.366260969267675,-21.36716545882892,-0.10607809012819928,0.17768405182891917,0.9783536254956138,0.17320707790682613,0.13939755539851137,0.9749705788955366,34.710707326281806,35.38529765590289,2.2305874800922076,2.692253707174004
410678.8606504,7709360.0,2099750.0,1711300673536.0,-208.0,0.12752912938594818,80.0,0.04904966428875923,-17584.0,10.781115531921387,2761.0,4021.148681640625,2516.0,1843.223388671875,34867.0,481.8213806152344,2.075457811355591,0.9954475462436676,0.48614071677074255,0.1694818927470133,-2.6438593448750094,49.34999373087073,189.38790176615655,19.76592344414629,16.344754866486433,-18.624084718766852,-40.09961877090083,14.366260969267675,-21.36716545882892,-0.10633948301820875,0.17764613743513938,0.9783321338920622,0.17320707790682613,0.13939755539851137,0.9749705788955366,34.592783177123145,35.38529765590289,2.223557537273667,2.692253707174004
410678.9278114,7709616.0,2099757.75,1711300673536.0,-208.0,0.12752912938594818,80.0,0.04904966428875923,-17536.0,10.751686096191406,2767.0,4029.88720703125,2528.0,1852.0146484375,34868.0,481.4814758300781,2.076923131942749,0.9266867339611053,0.4857490921804798,0.17047170611112694,-2.786007488671041,49.51168246528002,190.7265204390187,19.76592344414629,16.344754866486433,-18.624084718766852,-40.09961877090083,14.366260969267675,-21.36716545882892,-0.10633948301820875,0.17764613743513938,0.9783321338920622,0.17153046741933659,0.13894220892378303,0.9753319236681859,34.592783177123145,35.38434566893875,2.223557537273667,2.691994447927449
410678.9946723,7709872.0,2099765.5,1711300673536.0,-160.0,0.09809932857751846,112.0,0.06866952776908875,-17616.0,10.800735473632812,2752.0,4008.041015625,2496.0,1828.5714111328125,34867.0,481.8213806152344,2.075457811355591,0.8533734679222107,0.46919330157203953,0.18169678560315783,-17.298203033539906,102.34883667697504,411.5880633799614,nan,nan,nan,-123.72379398988895,175.16399239507658,-71.49738111960177,nan,nan,nan,0.21285118191269808,-0.14563031143620314,0.9661708889991263,nan,35.38434566893875,nan,2.691994447927449
410679.0627811,7710128.0,2099773.5,1711300673536.0,-144.0,0.08828939497470856,80.0,0.04904966428875923,-17600.0,10.790925979614258,2754.0,4010.953857421875,2494.0,1827.106201171875,34868.0,481.4814758300781,2.076923131942749,0.9265533089637756,0.48695021305172626,0.17084993401059856,-2.388869537476035,49.1011613061801,189.4240526128533,19.76592344414629,16.344754866486433,-18.624084718766852,-40.09961877090083,14.366260969267675,-21.36716545882892,-0.10513162045641314,0.1756288884411679,0.9788267650228658,0.1743331895646791,0.13909219313312143,0.9748134697600481,34.76399219084399,35.604210833171294,2.233979275319504,2.7088542573161227
410679.1296242,7710384.0,2099781.25,1711300673536.0,-112.0,0.06866952776908875,96.0,0.05885959416627884,-17600.0,10.790925979614258,2746.0,3999.302490234375,2463.0,1804.3956298828125,34866.0,482.1617736816406,2.0739927291870117,0.9265533089637756,0.4891021193853679,0.1727406379875499,-1.7437807865261377,49.672138032198944,193.0309058021183,19.76592344414629,16.344754866486433,-18.624084718766852,-40.09961877090083,14.366260969267675,-21.36716545882892,-0.100401943309452,0.17561599796675686,0.9793255184247093,0.1743331895646791,0.13909219313312143,0.9748134697600481,34.45459390976971,35.604210833171294,2.2143840858670467,2.7088542573161227
410679.1966122,7710640.0,2099789.0,1711300673536.0,-224.0,0.1373390555381775,96.0,0.05885959416627884,-17680.0,10.839975357055664,2771.0,4035.712890625,2520.0,1846.15380859375,34867.0,481.8213806152344,2.075457811355591,0.9734997451305389,0.48905790293657053,0.17364321967358443,-1.7595370917345843,49.5544539419971,193.24536608674424,19.76592344414629,16.344754866486433,-18.624084718766852,-40.09961877090083,14.366260969267675,-21.36716545882892,-0.100401943309452,0.17561599796675686,0.9793255184247093,0.17413057643684474,0.13773403464960518,0.9750425006372356,34.45459390976971,35.66517301926765,2.2143840858670467,2.713668831924897
410679.2642512,7710896.0,2099797.0,1711300673536.0,-192.0,0.11771918833255768,80.0,0.04904966428875923,-17664.0,10.83016586303711,2757.0,4015.322998046875,2498.0,1830.03662109375,34866.0,482.1617736816406,2.0739927291870117,0.9867282509803772,0.48891677433179864,0.17206633321604403,-1.8087343519800552,49.94739007299634,193.5968832725423,19.76592344414629,16.344754866486433,-18.624084718766852,-40.09961877090083,14.366260969267675,-21.36716545882892,-0.100401943309452,0.17561599796675686,0.9793255184247093,0.17356233938789997,0.1407607543148634,0.9747115082889451,34.45459390976971,35.23324135610004,2.2143840858670467,2.6807452438260717
410679.331704,7711152.0,2099804.75,1711300673536.0,-128.0,0.07847946137189865,96.0,0.05885959416627884,-17680.0,10.839975357055664,2751.0,4006.584716796875,2499.0,1830.769287109375,34867.0,481.8213806152344,2.075457811355591,0.9867282509803772,0.48884475667312677,0.17037195402745908,-1.8312689910280824,50.23660550704465,193.45654670148116,19.76592344414629,16.344754866486433,-18.624084718766852,-40.09961877090083,14.366260969267675,-21.36716545882892,-0.10057899780997673,0.1783870351668309,0.978806380692284,0.17356233938789997,0.1407607543148634,0.9747115082889451,34.42893143244035,35.23324135610004,2.2127218573181677,2.6807452438260717
410679.3986833,7711408.0,2099812.5,1711300673536.0,-176.0,0.10790925472974777,48.0,0.02942979708313942,-17648.0,10.820355415344238,2766.0,4028.4306640625,2503.0,1833.6995849609375,34866.0,482.1617736816406,2.0739927291870117,0.9634301364421844,0.48970309956761165,0.16683528436097772,-1.5319969108319427,50.10544607291528,190.3755529018971,19.76592344414629,16.344754866486433,-18.624084718766852,-40.09961877090083,14.366260969267675,-21.36716545882892,-0.10057899780997673,0.1783870351668309,0.978806380692284,0.17724370334026424,0.14402576147677737,0.9735713890913511,34.42893143244035,35.25165396209728,2.2127218573181677,2.6828965210495452
410679.4659741,7711664.0,2099820.25,1711300673536.0,-160.0,0.09809932857751846,0.0,0.0,-17648.0,10.820355415344238,2770.0,4034.25634765625,2536.0,1857.87548828125,34867.0,481.8213806152344,2.075457811355591,0.9634301364421844,0.4898115177001133,0.1643626529123391,-1.4997688485829173,50.61477228324133,190.52746740151576,19.76592344414629,16.344754866486433,-18.624084718766852,-40.09961877090083,14.366260969267675,-21.36716545882892,-0.10036878354206108,0.18274702832178455,0.9780233284180105,0.17724370334026424,0.14402576147677737,0.9735713890913511,34.42784160907736,35.25165396209728,2.2133156122158506,2.6828965210495452
410679.5336733,7711920.0,2099828.0,1711300673536.0,-192.0,0.11771918833255768,-16.0,-0.009809932671487331,-17648.0,10.820355415344238,2752.0,4008.041015625,2490.0,1824.17578125,34865.0,482.5026550292969,2.0725274085998535,0.9532018005847931,0.4897286052453567,0.1630976376237091,-1.5278994451099948,50.90186625123165,190.7019598943122,19.76592344414629,16.344754866486433,-18.624084718766852,-40.09961877090083,14.366260969267675,-21.36716545882892,-0.10036878354206108,0.18274702832178455,0.9780233284180105,0.17691692674439827,0.14636593072163503,0.9732817759288965,34.42784160907736,35.35081594748451,2.2133156122158506,2.690708357233631
410679.6008222,7712176.0,2099836.0,1711300673536.0,-256.0,0.1569589227437973,32.0,0.019619865342974663,-17664.0,10.83016586303711,2759.0,4018.23583984375,2512.0,1840.2930908203125,34866.0,482.1617736816406,2.0739927291870117,0.9532018005847931,0.4917106767924082,0.16441676880607858,-0.9147375706217051,51.54433449980499,194.06975203952743,19.76592344414629,16.344754866486433,-18.624084718766852,-40.09961877090083,14.366260969267675,-21.36716545882892,-0.09599936641030964,0.18347603510215155,0.978325439816431,0.17691692674439827,0.14636593072163503,0.9732817759288965,34.4674601668358,35.35081594748451,2.2159679825461143,2.690708357233631
410679.6682568,7712432.0,2099843.75,1711300673536.0,-192.0,0.11771918833255768,64.0,0.039239730685949326,-17616.0,10.800735473632812,2769.0,4032.800048828125,2518.0,1844.6885986328125,34864.0,482.843994140625,2.0710623264312744,0.9882733523845673,0.49086957191148806,0.1668872086080403,-1.204094590519981,51.86933744616144,197.11877956848394,19.76592344414629,16.344754866486433,-18.624084718766852,-40.09961877090083,14.366260969267675,-21.36716545882892,-0.09599936641030964,0.18347603510215155,0.978325439816431,0.17332796156331012,0.1448057267471215,0.9741605202642661,34.4674601668358,35.39772377834464,2.2159679825461143,2.6938497514590662
410679.7356699,7712688.0,2099851.5,1711300673536.0,-224.0,0.1373390555381775,48.0,0.02942979708313942,-17568.0,10.771306037902832,2768.0,4031.343505859375,2533.0,1855.6776123046875,34865.0,482.5026550292969,2.0725274085998535,0.9882733523845673,0.49364849835759506,0.1705242577634708,-0.30101766607367786,52.47560193616295,202.2051190880195,19.76592344414629,16.344754866486433,-18.624084718766852,-40.09961877090083,14.366260969267675,-21.36716545882892,-0.08982617283184799,0.18144865572033642,0.9792893566314635,0.17332796156331012,0.1448057267471215,0.9741605202642661,34.51839904271645,35.39772377834464,2.2189387927462945,2.6938497514590662
410679.8028883,7712944.0,2099859.5,1711300673536.0,-176.0,0.10790925472974777,64.0,0.039239730685949326,-17648.0,10.820355415344238,2755.0,4012.41015625,2506.0,1835.8974609375,34865.0,482.5026550292969,2.0725274085998535,0.9914813935756683,0.4930348730609344,0.17103160318774158,-0.5127033409349746,52.96447722481245,204.48537387979937,19.76592344414629,16.344754866486433,-18.624084718766852,-40.09961877090083,14.366260969267675,-21.36716545882892,-0.08982617283184799,0.18144865572033642,0.9792893566314635,0.17072746660778376,0.1457999982743975,0.9744713913958039,34.51839904271645,35.4554357356021,2.2189387927462945,2.697909474052796
410679.8702717,7713200.0,2099867.25,1711300673536.0,-144.0,0.08828939497470856,80.0,0.04904966428875923,-17648.0,10.820355415344238,2765.0,4026.974365234375,2522.0,1847.6190185546875,34864.0,482.843994140625,2.0710623264312744,0.9914813935756683,0.49428715195648704,0.1743326934617383,-0.0884728669213466,52.91919934989788,206.9263489953164,19.76592344414629,16.344754866486433,-18.624084718766852,-40.09961877090083,14.366260969267675,-21.36716545882892,-0.08701626558497014,0.17769388607185407,0.980231121917851,0.17072746660778376,0.1457999982743975,0.9744713913958039,34.65349718442531,35.4554357356021,2.2272820375242075,2.697909474052796
410679.9376924,7713456.0,2099875.0,1711300673536.0,-160.0,0.09809932857751846,48.0,0.02942979708313942,-17728.0,10.869405746459961,2771.0,4035.712890625,2537.0,1858.6080322265625,34864.0,482.843994140625,2.0710623264312744,1.0,0.493816915183818,0.17662696911842501,-0.25214703694786955,52.95243572893379,208.91110087441206,19.76592344414629,16.344754866486433,-18.624084718766852,-40.09961877090083,14.366260969267675,-21.36716545882892,-0.08701626558497014,0.17769388607185407,0.980231121917851,0.16869425187194048,0.1433969634364052,0.9751818088246851,34.65349718442531,35.32043030901924,2.2272820375242075,2.687146807937832
410680.0047022,7713712.0,2099882.75,1711300673536.0,-208.0,0.12752912938594818,64.0,0.039239730685949326,-17712.0,10.85959529876709,2769.0,4032.800048828125,2539.0,1860.0732421875,34865.0,482.5026550292969,2.0725274085998535,1.0,0.49414640541273547,0.17801469948226523,-0.13838022887956924,52.83382835905384,209.57758391324052,19.76592344414629,16.344754866486433,-18.624084718766852,-40.09961877090083,14.366260969267675,-21.36716545882892,-0.08627036749138961,0.17581722626049445,0.9806353688517291,0.16869425187194048,0.1433969634364052,0.9751818088246851,34.809233685820715,35.32043030901924,2.2368920601321953,2.687146807937832
410680.071966,7713968.0,2099890.5,1711300673536.0,-192.0,0.11771918833255768,80.0,0.04904966428875923,-17664.0,10.83016586303711,2754.0,4010.953857421875,2512.0,1840.2930908203125,34865.0,482.5026550292969,2.0725274085998535,1.0,0.49381400728020325,0.17969332690297046,-0.25548940541828813,52.84643104923789,211.01503679978495,19.76592344414629,16.344754866486433,-18.624084718766852,-40.09961877090083,14.366260969267675,-21.36716545882892,-0.08627036749138961,0.17581722626049445,0.9806353688517291,0.16725329247347537,0.14160114975799534,0.9756922929612573,34.809233685820715,35.354281796344154,2.2368920601321953,2.6893281882142754
410680.1397129,7714224.0,2099898.5,1711300673536.0,-192.0,0.11771918833255768,64.0,0.039239730685949326,-17632.0,10.810545921325684,2768.0,4031.343505859375,2517.0,1843.9560546875,34863.0,483.18585205078125,2.069597005844116,1.0,0.494735861076862,0.18082290201239448,0.06746716637737826,53.08151804306933,212.9014159593401,19.76592344414629,16.344754866486433,-18.624084718766852,-40.09961877090083,14.366260969267675,-21.36716545882892,-0.08421038548263766,0.17526569197928688,0.9809131195941296,0.16725329247347537,0.14160114975799534,0.9756922929612573,34.67674035137096,35.354281796344154,2.2283866266901224,2.6893281882142754
410680.2067219,7714480.0,2099906.25,1711300673536.0,-144.0,0.08828939497470856,64.0,0.039239730685949326,-17568.0,10.771306037902832,2768.0,4031.343505859375,2531.0,1854.21240234375,34864.0,482.843994140625,2.0710623264312744,0.9876300990581512,0.49441874308140105,0.18237901129483047,-0.04464432042030353,53.103545186144295,214.30830519217673,19.76592344414629,16.344754866486433,-18.624084718766852,-40.09961877090083,14.366260969267675,-21.36716545882892,-0.08421038548263766,0.17526569197928688,0.9809131195941296,0.1658776013840763,0.1399593155937609,0.9761639264680864,34.67674035137096,35.26242094811004,2.2283866266901224,2.6820888408524604
410680.2736611,7714736.0,2099914.0,1711300673536.0,-128.0,0.07847946137189865,64.0,0.039239730685949326,-17584.0,10.781115531921387,2776.0,4042.994873046875,2538.0,1859.3406982421875,34864.0,482.843994140625,2.0710623264312744,0.9876300990581512,0.4941459470542102,0.18142197795365067,-0.14113437974093124,53.163139442119174,213.735117833792,19.76592344414629,16.344754866486433,-18.624084718766852,-40.09961877090083,14.366260969267675,-21.36716545882892,-0.08482699935049733,0.17649366893812465,0.9806397733143146,0.1658776013840763,0.1399593155937609,0.9761639264680864,34.49021701432787,35.26242094811004,2.2164315919177566,2.6820888408524604
410680.3407016,7714992.0,2099922.0,1711300673536.0,-160.0,0.09809932857751846,80.0,0.04904966428875923,-17520.0,10.741876602172852,2752.0,4008.041015625,2512.0,1840.2930908203125,34864.0,482.843994140625,2.0710623264312744,0.9705324470996857,0.49358694728169744,0.18213878795948646,-0.342683779650061,53.589392583974764,216.0622886612896,19.76592344414629,16.344754866486433,-18.624084718766852,-40.09961877090083,14.366260969267675,-21.36716545882892,-0.08482699935049733,0.17649366893812465,0.9806397733143146,0.1634865536380893,0.14042909236813925,0.9764997781854337,34.49021701432787,35.33636905759068,2.2164315919177566,2.687346503144971
410680.4077231,7715248.0,2099929.75,1711300673536.0,-176.0,0.10790925472974777,64.0,0.039239730685949326,-17616.0,10.800735473632812,2764.0,4025.51806640625,2503.0,1833.6995849609375,34862.0,483.5281677246094,2.068131923675537,0.9705324470996857,0.4935560039133288,0.1812010748203221,-0.3537227669578602,53.77100794208731,215.98955031271106,19.76592344414629,16.344754866486433,-18.624084718766852,-40.09961877090083,14.366260969267675,-21.36716545882892,-0.08490581199756961,0.17805075835254133,0.980351432160487,0.1634865536380893,0.14042909236813925,0.9764997781854337,34.642536354689526,35.33636905759068,2.226260779392698,2.687346503144971
410680.4747749,7715504.0,2099937.5,1711300673536.0,-224.0,0.1373390555381775,48.0,0.02942979708313942,-17648.0,10.820355415344238,2766.0,4028.4306640625,2529.0,1852.7471923828125,34864.0,482.843994140625,2.0710623264312744,0.9692413210868835,0.49394239172338894,0.1787362426682133,-0.21383106747016,53.84622715577588,214.19905536050243,19.76592344414629,16.344754866486433,-18.624084718766852,-40.09961877090083,14.366260969267675,-21.36716545882892,-0.08490581199756961,0.17805075835254133,0.980351432160487,0.16517829792934544,0.14337428787135562,0.9757868330073665,34.642536354689526,35.05521700924002,2.226260779392698,2.666289227728676
410680.5416331,7715760.0,2099945.25,1711300673536.0,-208.0,0.12752912938594818,32.0,0.019619865342974663,-17680.0,10.839975357055664,2772.0,4037.169189453125,2524.0,1849.084228515625,34863.0,483.18585205078125,2.069597005844116,0.9692413210868835,0.4937497690189562,0.17831346159432981,-0.2817199859085271,53.83420980162299,213.79599035373988,19.76592344414629,16.344754866486433,-18.624084718766852,-40.09961877090083,14.366260969267675,-21.36716545882892,-0.08533844736685907,0.17848525022319503,0.9802348518869226,0.16517829792934544,0.14337428787135562,0.9757868330073665,34.67871692983219,35.05521700924002,2.2285589411864906,2.666289227728676
410680.6090542,7716016.0,2099953.0,1711300673536.0,-224.0,0.1373390555381775,32.0,0.019619865342974663,-17600.0,10.790925979614258,2754.0,4010.953857421875,2515.0,1842.4908447265625,34863.0,483.18585205078125,2.069597005844116,0.9976370632648468,0.493600938500167,0.1802058100911389,-0.33550392071459534,53.62701951132232,214.5650970370592,19.76592344414629,16.344754866486433,-18.624084718766852,-40.09961877090083,14.366260969267675,-21.36716545882892,-0.08533844736685907,0.17848525022319503,0.9802348518869226,0.16450877776952597,0.14067403262157874,0.9762928241991539,34.67871692983219,35.25360629572063,2.2285589411864906,2.6813614369142815
410680.6767568,7716272.0,2099961.0,1711300673536.0,-160.0,0.09809932857751846,16.0,0.009809932671487331,-17600.0,10.790925979614258,2767.0,4029.88720703125,2517.0,1843.9560546875,34862.0,483.5281677246094,2.068131923675537,0.9976370632648468,0.49434424250132575,0.18094099920420426,-0.07173511322060477,53.86159213916331,216.1310931882282,19.76592344414629,16.344754866486433,-18.624084718766852,-40.09961877090083,14.366260969267675,-21.36716545882892,-0.0836777339897826,0.1783397019933984,0.9804045019925404,0.16450877776952597,0.14067403262157874,0.9762928241991539,34.49995899473013,35.25360629572063,2.2169034640246066,2.6813614369142815
410680.7446256,7716528.0,2099968.75,1711300673536.0,-144.0,0.08828939497470856,16.0,0.009809932671487331,-17536.0,10.751686096191406,2771.0,4035.712890625,2547.0,1865.93408203125,34863.0,483.18585205078125,2.069597005844116,0.9710474014282227,0.4945402593176854,0.18047311816747613,-0.0015488932171034975,53.751277613380495,215.28977340453537,19.76592344414629,16.344754866486433,-18.624084718766852,-40.09961877090083,14.366260969267675,-21.36716545882892,-0.0836777339897826,0.1783397019933984,0.9804045019925404,0.16535105620485466,0.1408689508441157,0.9761224138908076,34.49995899473013,35.074040518263466,2.2169034640246066,2.6672782627781806
410680.8116707,7716784.0,2099976.5,1711300673536.0,-160.0,0.09809932857751846,80.0,0.04904966428875923,-17600.0,10.790925979614258,2768.0,4031.343505859375,2530.0,1853.4798583984375,34862.0,483.5281677246094,2.068131923675537,0.9710474014282227,0.4945910488423085,0.18233415970998246,0.01659803316746178,53.38624845330878,215.41080521964062,19.76592344414629,16.344754866486433,-18.624084718766852,-40.09961877090083,14.366260969267675,-21.36716545882892,-0.08354505897543225,0.17523377173339078,0.980975712423545,0.16535105620485466,0.1408689508441157,0.9761224138908076,34.78552296191479,35.074040518263466,2.234987631536888,2.6672782627781806
410680.8794695,7717040.0,2099984.5,1711300673536.0,-240.0,0.1471489816904068,96.0,0.05885959416627884,-17552.0,10.761495590209961,2757.0,4015.322998046875,2519.0,1845.4212646484375,34863.0,483.18585205078125,2.069597005844116,0.9679681658744812,0.49501477925088827,0.1817654600081634,0.1664136541193031,53.07017204331446,213.65227683867408,19.76592344414629,16.344754866486433,-18.624084718766852,-40.09961877090083,14.366260969267675,-21.36716545882892,-0.08354505897543225,0.17523377173339078,0.980975712423545,0.16716011910744405,0.1405567444403369,0.9758592604327323,34.78552296191479,35.051513435115474,2.234987631536888,2.665413677008883
410680.9467481,7717296.0,2099992.25,1711300673536.0,-256.0,0.1569589227437973,112.0,0.06866952776908875,-17584.0,10.781115531921387,2767.0,4029.88720703125,2526.0,1850.5494384765625,34862.0,483.5281677246094,2.068131923675537,0.9679681658744812,0.495463421328772,0.1823572787830735,0.326580018065469,53.17766638940968,214.58877298724576,19.76592344414629,16.344754866486433,-18.624084718766852,-40.09961877090083,14.366260969267675,-21.36716545882892,-0.08254042316225667,0.17489315278527554,0.9811215335793125,0.16716011910744405,0.1405567444403369,0.9758592604327323,34.540963384059395,35.051513435115474,2.219307837419315,2.665413677008883
410681.0137175,7717552.0,2100000.0,1711300673536.0,-144.0,0.08828939497470856,80.0,0.04904966428875923,-17600.0,10.790925979614258,2768.0,4031.343505859375,2530.0,1853.4798583984375,34862.0,483.5281677246094,2.068131923675537,1.0,0.4961642590992927,0.17989460331811746,0.5678663380343671,52.94705273453668,211.58432916709654,19.76592344414629,16.344754866486433,-18.624084718766852,-40.09961877090083,14.366260969267675,-21.36716545882892,-0.08254042316225667,0.17489315278527554,0.9811215335793125,0.1701732484529786,0.14256649275272185,0.9750465940944305,34.540963384059395,34.945105874915114,2.219307837419315,2.657627229149649
410681.0808146,7717808.0,2100007.75,1711300673536.0,-160.0,0.09809932857751846,64.0,0.039239730685949326,-17680.0,10.839975357055664,2771.0,4035.712890625,2544.0,1863.7362060546875,34862.0,483.5281677246094,2.068131923675537,1.0,0.49510568749633127,0.17856606305266454,0.19476235590284574,52.68593607438775,209.44353353488157,19.76592344414629,16.344754866486433,-18.624084718766852,-40.09961877090083,14.366260969267675,-21.36716545882892,-0.0849082487542337,0.17557655716196446,0.9807973602475899,0.1701732484529786,0.14256649275272185,0.9750465940944305,34.577327773116295,34.945105874915114,2.2216863448370847,2.657627229149649
410681.1477616,7718064.0,2100015.5,1711300673536.0,-176.0,0.10790925472974777,48.0,0.02942979708313942,-17664.0,10.83016586303711,2757.0,4015.322998046875,2516.0,1843.223388671875,34861.0,483.8709716796875,2.066666603088379,0.9662502110004425,0.4953041954568397,0.17804632620500627,0.26268493743829424,52.59032204761868,208.637529113323,19.76592344414629,16.344754866486433,-18.624084718766852,-40.09961877090083,14.366260969267675,-21.36716545882892,-0.0849082487542337,0.17557655716196446,0.9807973602475899,0.17102167189229242,0.1428388366975451,0.9748582740450312,34.577327773116295,35.22165539670767,2.2216863448370847,2.6790253266361175
410681.2147907,7718320.0,2100023.5,1711300673536.0,-144.0,0.08828939497470856,80.0,0.04904966428875923,-17632.0,10.810545921325684,2770.0,4034.25634765625,2535.0,1857.142822265625,34862.0,483.5281677246094,2.068131923675537,0.9662502110004425,0.4950286333551629,0.1778452968222458,0.16694356467897364,52.49417526997635,208.09216448964798,19.76592344414629,16.344754866486433,-18.624084718766852,-40.09961877090083,14.366260969267675,-21.36716545882892,-0.08552235351225956,0.17550693049754473,0.980756465386313,0.17102167189229242,0.1428388366975451,0.9748582740450312,34.61508946070102,35.22165539670767,2.2237010633790084,2.6790253266361175
410681.2816271,7718576.0,2100031.25,1711300673536.0,-160.0,0.09809932857751846,32.0,0.019619865342974663,-17632.0,10.810545921325684,2770.0,4034.25634765625,2533.0,1855.6776123046875,34861.0,483.8709716796875,2.066666603088379,0.9175330102443695,0.4960087997362114,0.1750922304558884,0.49589667377960467,52.06877789872854,204.20119521880218,19.76592344414629,16.344754866486433,-18.624084718766852,-40.09961877090083,14.366260969267675,-21.36716545882892,-0.08552235351225956,0.17550693049754473,0.980756465386313,0.17520268821369472,0.14448858059114836,0.9738722031773215,34.61508946070102,35.215103254699,2.2237010633790084,2.678425591334671
410681.3487415,7718832.0,2100039.0,1711300673536.0,-144.0,0.08828939497470856,64.0,0.039239730685949326,-17616.0,10.800735473632812,2769.0,4032.800048828125,2546.0,1865.201416015625,34862.0,483.5281677246094,2.068131923675537,0.9175330102443695,0.4951908590403932,0.1725195580302724,0.2172420737038383,52.186078524292256,202.63581943900698,19.76592344414629,16.344754866486433,-18.624084718766852,-40.09961877090083,14.366260969267675,-21.36716545882892,-0.08736331476291619,0.17866599611478404,0.98002352679206,0.17520268821369472,0.14448858059114836,0.9738722031773215,34.418826542637234,35.215103254699,2.2108332872754715,2.678425591334671
410681.4157564,7719088.0,2100047.0,1711300673536.0,-160.0,0.09809932857751846,80.0,0.04904966428875923,-17648.0,10.820355415344238,2758.0,4016.779541015625,2511.0,1839.5604248046875,34860.0,484.2142639160156,2.0652015209198,0.9383702278137207,0.49563976695305056,0.17123189338556177,0.3651924472370922,52.00117213601037,200.92099767307104,19.76592344414629,16.344754866486433,-18.624084718766852,-40.09961877090083,14.366260969267675,-21.36716545882892,-0.08736331476291619,0.17866599611478404,0.98002352679206,0.1771120628163862,0.14528324280661012,0.9734084941916833,34.418826542637234,35.25430024460615,2.2108332872754715,2.68184692302661
410681.4837568,7719344.0,2100054.75,1711300673536.0,-176.0,0.10790925472974777,64.0,0.039239730685949326,-17648.0,10.820355415344238,2760.0,4019.6923828125,2517.0,1843.9560546875,34862.0,483.5281677246094,2.068131923675537,0.9383702278137207,0.4960497776053939,0.17095010487452478,0.5038787430044263,52.253243523242915,201.67674641810441,19.76592344414629,16.344754866486433,-18.624084718766852,-40.09961877090083,14.366260969267675,-21.36716545882892,-0.08645717894921379,0.17976283689757203,0.9799033006775111,0.1771120628163862,0.14528324280661012,0.9734084941916833,34.41191742767186,35.25430024460615,2.210810915146186,2.68184692302661
410681.5507268,7719600.0,2100062.5,1711300673536.0,-160.0,0.09809932857751846,80.0,0.04904966428875923,-17648.0,10.820355415344238,2769.0,4032.800048828125,2518.0,1844.6885986328125,34860.0,484.2142639160156,2.0652015209198,0.9396459460258484,0.49603537002007103,0.17191196670330922,0.4992853181408421,52.0945662359376,201.8078429217409,19.76592344414629,16.344754866486433,-18.624084718766852,-40.09961877090083,14.366260969267675,-21.36716545882892,-0.08645717894921379,0.17976283689757203,0.9799033006775111,0.1770329670160737,0.14373415946868753,0.9736528231311794,34.41191742767186,35.30235893620829,2.210810915146186,2.6853500746650716
410681.6181551,7719856.0,2100070.25,1711300673536.0,-176.0,0.10790925472974777,64.0,0.039239730685949326,-17600.0,10.790925979614258,2776.0,4042.994873046875,2553.0,1870.3297119140625,34862.0,483.5281677246094,2.068131923675537,0.9396459460258484,0.49649557317879145,0.17318141664672104,0.65610639034802,52.06427761797306,202.67856920904626,19.76592344414629,16.344754866486433,-18.624084718766852,-40.09961877090083,14.366260969267675,-21.36716545882892,-0.085423103233428,0.178291148628482,0.9802628013725236,0.1770329670160737,0.14373415946868753,0.9736528231311794,34.667613524590784,35.30235893620829,2.2270677513657993,2.6853500746650716
410681.685712,7720112.0,2100078.0,1711300673536.0,-144.0,0.08828939497470856,48.0,0.02942979708313942,-17696.0,10.849785804748535,2753.0,4009.497314453125,2503.0,1833.6995849609375,34861.0,483.8709716796875,2.066666603088379,0.9533427357673645,0.49714150860755,0.1707945140635142,0.8630217260503432,51.89629534058047,200.17868847562616,19.76592344414629,16.344754866486433,-18.624084718766852,-40.09961877090083,14.366260969267675,-21.36716545882892,-0.085423103233428,0.178291148628482,0.9802628013725236,0.1797825660218842,0.14576393461353906,0.9728469069286116,34.667613524590784,35.1729327312352,2.2270677513657993,2.6756760187768327
410681.7526864,7720368.0,2100086.0,1711300673536.0,-144.0,0.08828939497470856,64.0,0.039239730685949326,-17664.0,10.83016586303711,2762.0,4022.605224609375,2520.0,1846.15380859375,34861.0,483.8709716796875,2.066666603088379,0.9533427357673645,0.49789581675045075,0.17235308998103738,1.1211952713213726,51.94914472394352,201.58408434275208,19.76592344414629,16.344754866486433,-18.624084718766852,-40.09961877090083,14.366260969267675,-21.36716545882892,-0.0837323455242281,0.17677084446229807,0.980683926074603,0.1797825660218842,0.14576393461353906,0.9728469069286116,34.62943619840918,35.1729327312352,2.2244835752838905,2.6756760187768327
410681.8197334,7720624.0,2100093.75,1711300673536.0,-144.0,0.08828939497470856,48.0,0.02942979708313942,-17664.0,10.83016586303711,2770.0,4034.25634765625,2522.0,1847.6190185546875,34860.0,484.2142639160156,2.0652015209198,0.921167254447937,0.49758632336682024,0.1760747075573038,1.0240198302989327,51.56667706591434,203.00452099924047,19.76592344414629,16.344754866486433,-18.624084718766852,-40.09961877090083,14.366260969267675,-21.36716545882892,-0.0837323455242281,0.17677084446229807,0.980683926074603,0.17841544032365225,0.1405256452739838,0.9738688174874726,34.62943619840918,35.463130942715196,2.2244835752838905,2.697153440322694
410681.8873346,7720880.0,2100101.5,1711300673536.0,-160.0,0.09809932857751846,32.0,0.019619865342974663,-17664.0,10.83016586303711,2776.0,4042.994873046875,2551.0,1868.864501953125,34861.0,483.8709716796875,2.066666603088379,0.921167254447937,0.49733627186327156,0.1762430813503164,0.9376333232487735,51.414012525942624,202.53668625354084,19.76592344414629,16.344754866486433,-18.624084718766852,-40.09961877090083,14.366260969267675,-21.36716545882892,-0.08428609846090776,0.17610864231041343,0.98075562690704,0.17841544032365225,0.1405256452739838,0.9738688174874726,34.43796716032026,35.463130942715196,2.212159429857577,2.697153440322694
410681.954688,7721136.0,2100109.5,1711300673536.0,-144.0,0.08828939497470856,64.0,0.039239730685949326,-17648.0,10.820355415344238,2761.0,4021.148681640625,2524.0,1849.084228515625,34860.0,484.2142639160156,2.0652015209198,0.964185506105423,0.4977336511819394,0.17638397752910795,1.063633298163099,51.02863444665687,201.12841731634825,19.76592344414629,16.344754866486433,-18.624084718766852,-40.09961877090083,14.366260969267675,-21.36716545882892,-0.08428609846090776,0.17610864231041343,0.98075562690704,0.18007273385915332,0.13911762392018573,0.9737659355488322,34.43796716032026,35.42245615675355,2.212159429857577,2.693777413275007
410682.0215432,7721392.0,2100117.25,1711300673536.0,-128.0,0.07847946137189865,80.0,0.04904966428875923,-17600.0,10.790925979614258,2767.0,4029.88720703125,2538.0,1859.3406982421875,34861.0,483.8709716796875,2.066666603088379,0.964185506105423,0.49836854392661356,0.17692371368625492,1.282773131275027,51.22146274802264,202.3130239384853,19.76592344414629,16.344754866486433,-18.624084718766852,-40.09961877090083,14.366260969267675,-21.36716545882892,-0.08287015388919686,0.1761425641383746,0.9808701925806184,0.18007273385915332,0.13911762392018573,0.9737659355488322,34.58799506684654,35.42245615675355,2.2214507312138543,2.693777413275007
410682.0885334,7721648.0,2100125.0,1711300673536.0,-160.0,0.09809932857751846,80.0,0.04904966428875923,-17616.0,10.800735473632812,2770.0,4034.25634765625,2539.0,1860.0732421875,34860.0,484.2142639160156,2.0652015209198,0.9396170675754547,0.49814299171412924,0.17826346398851267,1.212281351439799,51.18609982111429,203.2367371625893,19.76592344414629,16.344754866486433,-18.624084718766852,-40.09961877090083,14.366260969267675,-21.36716545882892,-0.08287015388919686,0.1761425641383746,0.9808701925806184,0.17910422871015053,0.1375681190031056,0.9741646102646563,34.58799506684654,35.15757519134364,2.2214507312138543,2.673376590777457
410682.155738,7721904.0,2100132.75,1711300673536.0,-176.0,0.10790925472974777,64.0,0.039239730685949326,-17568.0,10.771306037902832,2777.0,4044.451171875,2555.0,1871.794921875,34861.0,483.8709716796875,2.066666603088379,0.9396170675754547,0.4988956948692338,0.17698516955475407,1.476499017761805,51.802124566009496,204.6545597955133,19.76592344414629,16.344754866486433,-18.624084718766852,-40.09961877090083,14.366260969267675,-21.36716545882892,-0.08120841134036628,0.17944905678077094,0.9804097255474701,0.17910422871015053,0.1375681190031056,0.9741646102646563,34.27059077101201,35.15757519134364,2.2015479841559036,2.673376590777457
410682.2226604,7722160.0,2100140.5,1711300673536.0,-176.0,0.10790925472974777,64.0,0.039239730685949326,-17536.0,10.751686096191406,2761.0,4021.148681640625,2536.0,1857.87548828125,34861.0,483.8709716796875,2.066666603088379,0.9327341318130493,0.4994502910365961,0.1751573519706131,1.647740547394113,51.62081124254048,202.49027897215598,19.76592344414629,16.344754866486433,-18.624084718766852,-40.09961877090083,14.366260969267675,-21.36716545882892,-0.08120841134036628,0.17944905678077094,0.9804097255474701,0.1814538461510553,0.13895435818489088,0.9735328387159902,34.27059077101201,35.25065582587959,2.2015479841559036,2.6806276077701017
410682.2904534,7722416.0,2100148.5,1711300673536.0,-128.0,0.07847946137189865,80.0,0.04904966428875923,-17664.0,10.83016586303711,2762.0,4022.605224609375,2519.0,1845.4212646484375,34860.0,484.2142639160156,2.0652015209198,0.9327341318130493,0.5000316298512929,0.1749423427371838,1.8530621174819633,51.94329567685206,203.58376959779181,19.76592344414629,16.344754866486433,-18.624084718766852,-40.09961877090083,14.366260969267675,-21.36716545882892,-0.07991576911678293,0.18069016035545413,0.9802879861536575,0.1814538461510553,0.13895435818489088,0.9735328387159902,34.533005844556214,35.25065582587959,2.2186671923020325,2.6806276077701017
410682.3577742,7722672.0,2100156.25,1711300673536.0,-192.0,0.11771918833255768,64.0,0.039239730685949326,-17728.0,10.869405746459961,2762.0,4022.605224609375,2524.0,1849.084228515625,34861.0,483.8709716796875,2.066666603088379,0.929397851228714,0.500421642127219,0.1745608643555503,1.970960537183851,51.65377367724717,202.1486324255652,19.76592344414629,16.344754866486433,-18.624084718766852,-40.09961877090083,14.366260969267675,-21.36716545882892,-0.07991576911678293,0.18069016035545413,0.9802879861536575,0.1830833785698292,0.13843387357215037,0.9733018746202364,34.533005844556214,35.39732113484932,2.2186671923020325,2.6917594485836065
410682.4247683,7722928.0,2100164.0,1711300673536.0,-176.0,0.10790925472974777,48.0,0.02942979708313942,-17632.0,10.810545921325684,2769.0,4032.800048828125,2524.0,1849.084228515625,34860.0,484.2142639160156,2.0652015209198,0.929397851228714,0.5014309277674427,0.1753490233253272,2.3309413592927353,51.983892492587316,204.06054887380373,19.76592344414629,16.344754866486433,-18.624084718766852,-40.09961877090083,14.366260969267675,-21.36716545882892,-0.07765741527308231,0.18086944206886302,0.9804364185294232,0.1830833785698292,0.13843387357215037,0.9733018746202364,34.56382343358955,35.39732113484932,2.2202449792818,2.6917594485836065
410682.4918047,7723184.0,2100172.0,1711300673536.0,-160.0,0.09809932857751846,48.0,0.02942979708313942,-17648.0,10.820355415344238,2753.0,4009.497314453125,2512.0,1840.2930908203125,34861.0,483.8709716796875,2.066666603088379,0.9122352600097656,0.5016075936787572,0.17539404244934298,2.383275411641282,51.812963015492414,203.4245392388298,19.76592344414629,16.344754866486433,-18.624084718766852,-40.09961877090083,14.366260969267675,-21.36716545882892,-0.07765741527308231,0.18086944206886302,0.9804364185294232,0.18381551153267486,0.1378387438430063,0.973248343649124,34.56382343358955,35.42538190721861,2.2202449792818,2.693990012059558
410682.5589798,7723440.0,2100179.75,1711300673536.0,-192.0,0.11771918833255768,80.0,0.04904966428875923,-17680.0,10.839975357055664,2765.0,4026.974365234375,2509.0,1838.09521484375,34859.0,484.55804443359375,2.0637362003326416,0.9122352600097656,0.5016572445510034,0.17339164577957722,2.401947712691376,52.235731242233854,203.4995122343862,19.76592344414629,16.344754866486433,-18.624084718766852,-40.09961877090083,14.366260969267675,-21.36716545882892,-0.07756563784207451,0.18435258013293934,0.9797947223906038,0.18381551153267486,0.1378387438430063,0.973248343649124,34.37193777818148,35.42538190721861,2.2075937114556243,2.693990012059558
410682.6267657,7723696.0,2100187.5,1711300673536.0,-160.0,0.09809932857751846,112.0,0.06866952776908875,-17712.0,10.85959529876709,2769.0,4032.800048828125,2539.0,1860.0732421875,34860.0,484.2142639160156,2.0652015209198,0.9362832307815552,0.500918404564596,0.17627224328030722,2.18230956126423,52.404511766248724,206.45380976369484,19.76592344414629,16.344754866486433,-18.624084718766852,-40.09961877090083,14.366260969267675,-21.36716545882892,-0.07756563784207451,0.18435258013293934,0.9797947223906038,0.1806842541287255,0.13524863530476716,0.9741976221271249,34.37193777818148,35.58619377772158,2.2075937114556243,2.706043839556645
410682.6936397,7723952.0,2100195.25,1711300673536.0,-144.0,0.08828939497470856,64.0,0.039239730685949326,-17600.0,10.790925979614258,2768.0,4031.343505859375,2522.0,1847.6190185546875,34859.0,484.55804443359375,2.0637362003326416,0.9362832307815552,0.5014502411467641,0.17723032099595393,2.3759650196775564,52.47474708306603,207.50328676258727,19.76592344414629,16.344754866486433,-18.624084718766852,-40.09961877090083,14.366260969267675,-21.36716545882892,-0.07636843434753392,0.18352207599505835,0.9800446468696058,0.1806842541287255,0.13524863530476716,0.9741976221271249,34.45871994880278,35.58619377772158,2.2135425254064116,2.706043839556645
410682.7608609,7724208.0,2100203.0,1711300673536.0,-192.0,0.11771918833255768,48.0,0.02942979708313942,-17632.0,10.810545921325684,2757.0,4015.322998046875,2521.0,1846.886474609375,34860.0,484.2142639160156,2.0652015209198,0.949192464351654,0.50178836061333,0.17486700017147383,2.4759728420805427,52.58650672003533,206.03881625575198,19.76592344414629,16.344754866486433,-18.624084718766852,-40.09961877090083,14.366260969267675,-21.36716545882892,-0.07636843434753392,0.18352207599505835,0.9800446468696058,0.18214059836374483,0.1381670881918549,0.9735166450391495,34.45871994880278,35.31821301172761,2.2135425254064116,2.685328270307618
410682.8277386,7724464.0,2100211.0,1711300673536.0,-144.0,0.08828939497470856,80.0,0.04904966428875923,-17600.0,10.790925979614258,2764.0,4025.51806640625,2507.0,1836.6300048828125,34859.0,484.55804443359375,2.0637362003326416,0.949192464351654,0.5016396957005831,0.17611695066176591,2.4212487661814652,52.26121515136187,205.76226825278718,19.76592344414629,16.344754866486433,-18.624084718766852,-40.09961877090083,14.366260969267675,-21.36716545882892,-0.07668870513399144,0.18116857697771668,0.9804574387604701,0.18214059836374483,0.1381670881918549,0.9735166450391495,34.74707380705699,35.31821301172761,2.231545209782785,2.685328270307618
410682.8947681,7724720.0,2100218.75,1711300673536.0,-192.0,0.11771918833255768,64.0,0.039239730685949326,-17616.0,10.800735473632812,2768.0,4031.343505859375,2529.0,1852.7471923828125,34860.0,484.2142639160156,2.0652015209198,0.9821190536022186,0.501849177597804,0.17674798889653465,2.4837371414158103,51.951517867192806,205.0461039846957,19.76592344414629,16.344754866486433,-18.624084718766852,-40.09961877090083,14.366260969267675,-21.36716545882892,-0.07668870513399144,0.18116857697771668,0.9804574387604701,0.18299720779460646,0.13650551012753412,0.9735904003451347,34.74707380705699,35.505436101713016,2.231545209782785,2.699795380929655
410682.9620636,7724976.0,2100226.5,1711300673536.0,-160.0,0.09809932857751846,80.0,0.04904966428875923,-17648.0,10.820355415344238,2776.0,4042.994873046875,2537.0,1858.6080322265625,34859.0,484.55804443359375,2.0637362003326416,0.9821190536022186,0.5016727277869915,0.17799152241225658,2.419217998740681,51.61661617698904,204.7182331294461,19.76592344414629,16.344754866486433,-18.624084718766852,-40.09961877090083,14.366260969267675,-21.36716545882892,-0.07707088930929323,0.1787854347764802,0.9808648461092179,0.18299720779460646,0.13650551012753412,0.9735904003451347,34.94471376390239,35.505436101713016,2.243874497969756,2.699795380929655
410683.0289244,7725232.0,2100234.5,1711300673536.0,-160.0,0.09809932857751846,80.0,0.04904966428875923,-17600.0,10.790925979614258,2759.0,4018.23583984375,2529.0,1852.7471923828125,34860.0,484.2142639160156,2.0652015209198,0.9233951270580292,0.5021010533138719,0.17751673362674358,2.544912198871165,51.310744534700866,203.12548730620767,19.76592344414629,16.344754866486433,-18.624084718766852,-40.09961877090083,14.366260969267675,-21.36716545882892,-0.07707088930929323,0.1787854347764802,0.9808648461092179,0.18478309785181715,0.1360317357500746,0.9733193584929398,34.94471376390239,35.48502261652424,2.243874497969756,2.6981375040972453
410683.0966078,7725488.0,2100242.25,1711300673536.0,-176.0,0.10790925472974777,80.0,0.04904966428875923,-17712.0,10.85959529876709,2770.0,4034.25634765625,2533.0,1855.6776123046875,34859.0,484.55804443359375,2.0637362003326416,0.9233951270580292,0.5019489228335559,0.17811852820427077,2.489890740414136,51.11874447903102,202.84356927280245,19.76592344414629,16.344754866486433,-18.624084718766852,-40.09961877090083,14.366260969267675,-21.36716545882892,-0.07740472697830791,0.17753220096375602,0.9810661679328148,0.18478309785181715,0.1360317357500746,0.9733193584929398,34.85384334491761,35.48502261652424,2.237881119542953,2.6981375040972453
410683.163722,7725744.0,2100250.0,1711300673536.0,-160.0,0.09809932857751846,64.0,0.039239730685949326,-17712.0,10.85959529876709,2767.0,4029.88720703125,2539.0,1860.0732421875,34859.0,484.55804443359375,2.0637362003326416,0.9584881663322449,0.5022247635063906,0.17690866358797763,2.5695010772539284,51.086721488538366,201.75799079890783,19.76592344414629,16.344754866486433,-18.624084718766852,-40.09961877090083,14.366260969267675,-21.36716545882892,-0.07740472697830791,0.17753220096375602,0.9810661679328148,0.18595028856093593,0.1372209417077045,0.9729300608681776,34.85384334491761,35.40788678274445,2.237881119542953,2.6926296890570804
410683.2313595,7726000.0,2100257.75,1711300673536.0,-144.0,0.08828939497470856,48.0,0.02942979708313942,-17520.0,10.741876602172852,2768.0,4031.343505859375,2535.0,1857.142822265625,34859.0,484.55804443359375,2.0637362003326416,0.9584881663322449,0.5025146524423889,0.1785989526523022,2.6728869617844566,50.889680631032185,202.31348876253605,19.76592344414629,16.344754866486433,-18.624084718766852,-40.09961877090083,14.366260969267675,-21.36716545882892,-0.07674165460505976,0.17509192361065573,0.9815566905353953,0.18595028856093593,0.1372209417077045,0.9729300608681776,34.81398247555248,35.40788678274445,2.2350289334880684,2.6926296890570804
410683.2987029,7726256.0,2100265.5,1711300673536.0,-208.0,0.12752912938594818,64.0,0.039239730685949326,-17664.0,10.83016586303711,2755.0,4012.41015625,2511.0,1839.5604248046875,34859.0,484.55804443359375,2.0637362003326416,0.9216080904006958,0.5032277601455488,0.17466148668544124,2.873681628847187,50.95398323605012,199.47770164307468,19.76592344414629,16.344754866486433,-18.624084718766852,-40.09961877090083,14.366260969267675,-21.36716545882892,-0.07674165460505976,0.17509192361065573,0.9815566905353953,0.18897676517084366,0.14162956633961632,0.9717143861053082,34.81398247555248,35.39792984668738,2.2350289334880684,2.692274508587614
410683.3662507,7726512.0,2100273.5,1711300673536.0,-192.0,0.11771918833255768,48.0,0.02942979708313942,-17568.0,10.771306037902832,2769.0,4032.800048828125,2532.0,1854.945068359375,34859.0,484.55804443359375,2.0637362003326416,0.9216080904006958,0.5024872045875902,0.17552469410290017,2.610431746140611,50.44203989283159,198.1394832087446,19.76592344414629,16.344754866486433,-18.624084718766852,-40.09961877090083,14.366260969267675,-21.36716545882892,-0.07838560251548227,0.17250352234668503,0.9818850401631911,0.18897676517084366,0.14162956633961632,0.9717143861053082,34.88985692794491,35.39792984668738,2.239692540095925,2.692274508587614
410683.4337208,7726768.0,2100281.25,1711300673536.0,-160.0,0.09809932857751846,64.0,0.039239730685949326,-17520.0,10.741876602172852,2762.0,4022.605224609375,2515.0,1842.4908447265625,34858.0,484.9023132324219,2.0622711181640625,0.9531072676181793,0.5029512292257112,0.17374233582804344,2.7400170717212333,50.35103750902802,196.41821127922054,19.76592344414629,16.344754866486433,-18.624084718766852,-40.09961877090083,14.366260969267675,-21.36716545882892,-0.07838560251548227,0.17250352234668503,0.9818850401631911,0.19092402007541967,0.14320607961342283,0.9711024854874973,34.88985692794491,35.31275222235857,2.239692540095925,2.686179225685885
410683.5008662,7727024.0,2100289.0,1711300673536.0,-160.0,0.09809932857751846,32.0,0.019619865342974663,-17600.0,10.790925979614258,2771.0,4035.712890625,2545.0,1864.4688720703125,34859.0,484.55804443359375,2.0637362003326416,0.9531072676181793,0.5020394480922409,0.17449433611607756,2.422491137204368,49.79483249992376,194.81817147647223,19.76592344414629,16.344754866486433,-18.624084718766852,-40.09961877090083,14.366260969267675,-21.36716545882892,-0.08040906406531188,0.16984630092408104,0.9821846142546458,0.19092402007541967,0.14320607961342283,0.9711024854874973,34.69941336321322,35.31275222235857,2.2268965283958906,2.686179225685885
410683.5682484,7727280.0,2100297.0,1711300673536.0,-160.0,0.09809932857751846,64.0,0.039239730685949326,-17616.0,10.800735473632812,2758.0,4016.779541015625,2510.0,1838.827880859375,34858.0,484.9023132324219,2.0622711181640625,0.9483993351459503,0.5018291338287948,0.17431692688181377,2.362890648247582,50.00450353442412,195.50483019711902,19.76592344414629,16.344754866486433,-18.624084718766852,-40.09961877090083,14.366260969267675,-21.36716545882892,-0.08040906406531188,0.16984630092408104,0.9821846142546458,0.1900620642587381,0.14411540993811733,0.9711370450909984,34.69941336321322,35.26681994608374,2.2268965283958906,2.6826137155842593
410683.6357651,7727536.0,2100304.75,1711300673536.0,-176.0,0.10790925472974777,64.0,0.039239730685949326,-17648.0,10.820355415344238,2767.0,4029.88720703125,2538.0,1859.3406982421875,34859.0,484.55804443359375,2.0637362003326416,0.9483993351459503,0.5005562566270871,0.17497189363716392,1.9276571441995483,49.31327561965833,193.2965455304458,19.76592344414629,16.344754866486433,-18.624084718766852,-40.09961877090083,14.366260969267675,-21.36716545882892,-0.08323175320037962,0.16681198419034865,0.9824694586549091,0.1900620642587381,0.14411540993811733,0.9711370450909984,34.811868648279436,35.26681994608374,2.233372285593505,2.6826137155842593
410683.7028944,7727792.0,2100312.5,1711300673536.0,-224.0,0.1373390555381775,112.0,0.06866952776908875,-17680.0,10.839975357055664,2747.0,4000.759033203125,2485.0,1820.5128173828125,34859.0,484.55804443359375,2.0637362003326416,0.9500827193260193,0.5007277012425182,0.17375310117531484,1.976438452792296,49.37895973203889,192.64190689651258,19.76592344414629,16.344754866486433,-18.624084718766852,-40.09961877090083,14.366260969267675,-21.36716545882892,-0.08323175320037962,0.16681198419034865,0.9824694586549091,0.19079253293482026,0.14561683818492477,0.9707697697257269,34.811868648279436,35.48381399653822,2.233372285593505,2.69957037044722
410683.7706767,7728048.0,2100320.25,1711300673536.0,-192.0,0.11771918833255768,80.0,0.04904966428875923,-17696.0,10.849785804748535,2771.0,4035.712890625,2534.0,1856.4102783203125,34859.0,484.55804443359375,2.0637362003326416,0.9500827193260193,0.4997460721800479,0.17281373016628,1.648550803867808,49.12838273571121,190.97321959614925,19.76592344414629,16.344754866486433,-18.624084718766852,-40.09961877090083,14.366260969267675,-21.36716545882892,-0.08541791722970857,0.1669302658656382,0.9822617094003847,0.19079253293482026,0.14561683818492477,0.9707697697257269,34.50796101281497,35.48381399653822,2.214053031903549,2.69957037044722
410683.8376663,7728304.0,2100328.0,1711300673536.0,-192.0,0.11771918833255768,64.0,0.039239730685949326,-17616.0,10.800735473632812,2755.0,4012.41015625,2501.0,1832.234375,34857.0,485.2470703125,2.0608057975769043,0.9250552356243134,0.49930200300351474,0.17402100009564458,1.519459047472255,49.29064772070293,192.50040262239656,19.76592344414629,16.344754866486433,-18.624084718766852,-40.09961877090083,14.366260969267675,-21.36716545882892,-0.08541791722970857,0.1669302658656382,0.9822617094003847,0.188937530932339,0.14493768107082716,0.9712341005190267,34.50796101281497,35.51658647327725,2.214053031903549,2.702224225705978
410683.905864,7728560.0,2100336.0,1711300673536.0,-208.0,0.12752912938594818,96.0,0.05885959416627884,-17568.0,10.771306037902832,2766.0,4028.4306640625,2528.0,1852.0146484375,34859.0,484.55804443359375,2.0637362003326416,0.9250552356243134,0.499466513338256,0.17508511041011032,1.5740011613403873,49.16119247263191,192.7879361769954,19.76592344414629,16.344754866486433,-18.624084718766852,-40.09961877090083,14.366260969267675,-21.36716545882892,-0.08504276794425897,0.16536731753525233,0.9825585875211583,0.188937530932339,0.14493768107082716,0.9712341005190267,34.80784665474399,35.51658647327725,2.2329255734083158,2.702224225705978
410683.9729753,7728816.0,2100343.75,1711300673536.0,-144.0,0.08828939497470856,80.0,0.04904966428875923,-17536.0,10.751686096191406,2767.0,4029.88720703125,2524.0,1849.084228515625,34858.0,484.9023132324219,2.0622711181640625,0.9441719055175781,0.500560888471644,0.17100116967074475,1.8876017866605537,48.95423031079578,188.97310158895533,19.76592344414629,16.344754866486433,-18.624084718766852,-40.09961877090083,14.366260969267675,-21.36716545882892,-0.08504276794425897,0.16536731753525233,0.9825585875211583,0.19352270098757865,0.14843341273075994,0.9698022923191987,34.80784665474399,35.73795127889879,2.2329255734083158,2.719227070932682
410684.0399546,7729072.0,2100351.5,1711300673536.0,-176.0,0.10790925472974777,96.0,0.05885959416627884,-17664.0,10.83016586303711,2770.0,4034.25634765625,2543.0,1863.003662109375,34858.0,484.9023132324219,2.0622711181640625,0.9441719055175781,0.500145005230922,0.17163137204245138,1.7505498681434961,48.660294472293316,188.29421801745582,19.76592344414629,16.344754866486433,-18.624084718766852,-40.09961877090083,14.366260969267675,-21.36716545882892,-0.08595784439721361,0.16366766083614276,0.9827635248537716,0.19352270098757865,0.14843341273075994,0.9698022923191987,34.95880303735566,35.73795127889879,2.2424802968864994,2.719227070932682
410684.1077233,7729328.0,2100359.5,1711300673536.0,-160.0,0.09809932857751846,48.0,0.02942979708313942,-17776.0,10.898835182189941,2756.0,4013.86669921875,2507.0,1836.6300048828125,34858.0,484.9023132324219,2.0622711181640625,0.9524160325527191,0.4997121417960687,0.17366455052187824,1.627504641488878,48.66844699989997,189.80769495049708,19.76592344414629,16.344754866486433,-18.624084718766852,-40.09961877090083,14.366260969267675,-21.36716545882892,-0.08595784439721361,0.16366766083614276,0.9827635248537716,0.19170393156105617,0.1463665110455204,0.9704774325394669,34.95880303735566,35.465574396724996,2.2424802968864994,2.6983040442310315
410684.1747421,7729584.0,2100367.25,1711300673536.0,-192.0,0.11771918833255768,112.0,0.06866952776908875,-17664.0,10.83016586303711,2765.0,4026.974365234375,2522.0,1847.6190185546875,34858.0,484.9023132324219,2.0622711181640625,0.9524160325527191,0.4996675096191515,0.17376543465844219,1.612787186486564,48.6306180793793,189.73424282526105,19.76592344414629,16.344754866486433,-18.624084718766852,-40.09961877090083,14.366260969267675,-21.36716545882892,-0.08605567287047154,0.1634288712655766,0.9827947014527856,0.19170393156105617,0.1463665110455204,0.9704774325394669,34.95561080388354,35.465574396724996,2.2420279575002624,2.6983040442310315
410684.2417305,7729840.0,2100375.0,1711300673536.0,-192.0,0.11771918833255768,128.0,0.07847946137189865,-17584.0,10.781115531921387,2770.0,4034.25634765625,2531.0,1854.21240234375,34858.0,484.9023132324219,2.0622711181640625,0.968673974275589,0.5000128881360053,0.1716457860875339,1.7110041586381772,48.70767112863507,188.48831596899575,19.76592344414629,16.344754866486433,-18.624084718766852,-40.09961877090083,14.366260969267675,-21.36716545882892,-0.08605567287047154,0.1634288712655766,0.9827947014527856,0.19316514352384315,0.14883230193229277,0.9698124422943583,34.95561080388354,35.5810809301128,2.2420279575002624,2.7074164111779377
410684.3097345,7730096.0,2100382.75,1711300673536.0,-128.0,0.07847946137189865,128.0,0.07847946137189865,-17632.0,10.810545921325684,2769.0,4032.800048828125,2536.0,1857.87548828125,34857.0,485.2470703125,2.0608057975769043,0.968673974275589,0.4999186619495575,0.17011013972888378,1.6806105021846243,48.952355221669684,188.324308821025,19.76592344414629,16.344754866486433,-18.624084718766852,-40.09961877090083,14.366260969267675,-21.36716545882892,-0.08627928674000393,0.16589854083593303,0.9823612160647144,0.19316514352384315,0.14883230193229277,0.9698124422943583,34.84111243879724,35.5810809301128,2.2355291799172483,2.7074164111779377
410684.3767256,7730352.0,2100390.5,1711300673536.0,-112.0,0.06866952776908875,80.0,0.04904966428875923,-17728.0,10.869405746459961,2753.0,4009.497314453125,2511.0,1839.5604248046875,34857.0,485.2470703125,2.0608057975769043,0.9479692280292511,0.49937836679186914,0.1720822190021064,1.5258363054325663,49.06094844493079,190.17561779728234,19.76592344414629,16.344754866486433,-18.624084718766852,-40.09961877090083,14.366260969267675,-21.36716545882892,-0.08627928674000393,0.16589854083593303,0.9823612160647144,0.19090405755695247,0.1471826506989276,0.9705116733669562,34.84111243879724,35.61279745643908,2.2355291799172483,2.7101400229266077
410684.4437232,7730608.0,2100398.5,1711300673536.0,-224.0,0.1373390555381775,112.0,0.06866952776908875,-17680.0,10.839975357055664,2770.0,4034.25634765625,2522.0,1847.6190185546875,34856.0,485.5923156738281,2.059340715408325,0.9479692280292511,0.49843954821797204,0.1691373780764691,1.2200554881094057,49.20645007492205,188.6036559759646,19.76592344414629,16.344754866486433,-18.624084718766852,-40.09961877090083,14.366260969267675,-21.36716545882892,-0.08838558231847582,0.16949072989509273,0.9815604318216237,0.19090405755695247,0.1471826506989276,0.9705116733669562,34.75672649440541,35.61279745643908,2.229945236404798,2.7101400229266077
410684.5107077,7730864.0,2100406.25,1711300673536.0,-160.0,0.09809932857751846,96.0,0.05885959416627884,-17648.0,10.820355415344238,2770.0,4034.25634765625,2541.0,1861.5384521484375,34857.0,485.2470703125,2.0608057975769043,0.9124390780925751,0.4984152815103028,0.16758169649663146,1.2125961979788062,49.48754602483834,188.56292749915622,19.76592344414629,16.344754866486433,-18.624084718766852,-40.09961877090083,14.366260969267675,-21.36716545882892,-0.08838558231847582,0.16949072989509273,0.9815604318216237,0.19083403348960648,0.14981217830674162,0.9701230246175363,34.75672649440541,35.669879444471356,2.229945236404798,2.7143048851194735
410684.5776863,7731120.0,2100414.0,1711300673536.0,-144.0,0.08828939497470856,64.0,0.039239730685949326,-17664.0,10.83016586303711,2765.0,4026.974365234375,2525.0,1849.81689453125,34856.0,485.5923156738281,2.059340715408325,0.9124390780925751,0.49791777591678665,0.16515214460676275,1.052602799057187,49.72335757384754,187.73155520169092,19.76592344414629,16.344754866486433,-18.624084718766852,-40.09961877090083,14.366260969267675,-21.36716545882892,-0.08950936566328899,0.17287030941542678,0.9808689665705458,0.19083403348960648,0.14981217830674162,0.9701230246175363,34.73559050890502,35.669879444471356,2.22940801221011,2.7143048851194735
410684.6447233,7731376.0,2100422.0,1711300673536.0,-160.0,0.09809932857751846,80.0,0.04904966428875923,-17680.0,10.839975357055664,2758.0,4016.779541015625,2521.0,1846.886474609375,34857.0,485.2470703125,2.0608057975769043,0.9619300067424774,0.4975275289186222,0.16644761318940582,0.9370852860607108,49.82885458141562,189.05161657383155,19.76592344414629,16.344754866486433,-18.624084718766852,-40.09961877090083,14.366260969267675,-21.36716545882892,-0.08950936566328899,0.17287030941542678,0.9808689665705458,0.1891979925896493,0.14883804055449695,0.9705933016892014,34.73559050890502,35.70953561175029,2.22940801221011,2.717202670997041
410684.7128266,7731632.0,2100429.75,1711300673536.0,-160.0,0.09809932857751846,64.0,0.039239730685949326,-17616.0,10.800735473632812,2767.0,4029.88720703125,2520.0,1846.15380859375,34856.0,485.5923156738281,2.059340715408325,0.957075834274292,0.4973912743123394,0.16756482569382158,0.8964967820274605,49.75380330845198,189.5668916301193,19.76592344414629,16.344754866486433,-18.624084718766852,-40.09961877090083,14.366260969267675,-21.36716545882892,-0.08950936566328899,0.17287030941542678,0.9808689665705458,0.18861325976413207,0.1474031458460782,0.9709260274788333,34.73559050890502,35.74888041164897,2.22940801221011,2.719978275562216
410684.7799302,7731888.0,2100437.5,1711300673536.0,-176.0,0.10790925472974777,96.0,0.05885959416627884,-17536.0,10.751686096191406,2749.0,4003.671875,2503.0,1833.6995849609375,34858.0,484.9023132324219,2.0622711181640625,0.957075834274292,0.4968085242398848,0.16450719599738162,0.7096780053917922,50.06908499623984,188.58048116944335,19.76592344414629,16.344754866486433,-18.624084718766852,-40.09961877090083,14.366260969267675,-21.36716545882892,-0.09082729527682235,0.17718746152288076,0.9799770435636616,0.18861325976413207,0.1474031458460782,0.9709260274788333,34.8181518614538,35.74888041164897,2.2346220558468692,2.719978275562216
410684.847682,7732144.0,2100445.25,1711300673536.0,-208.0,0.12752912938594818,96.0,0.05885959416627884,-17568.0,10.771306037902832,2775.0,4041.53857421875,2526.0,1850.5494384765625,34856.0,485.5923156738281,2.059340715408325,0.95814648270607,0.4965309132938952,0.16600927096083273,0.6257022338877647,50.04810372145464,189.57056376615253,19.76592344414629,16.344754866486433,-18.624084718766852,-40.09961877090083,14.366260969267675,-21.36716545882892,-0.09082729527682235,0.17718746152288076,0.9799770435636616,0.18743510618683606,0.14575416915057504,0.9714030075843677,34.8181518614538,35.73572178036666,2.2346220558468692,2.71874021895326
410684.9146859,7732400.0,2100453.0,1711300673536.0,-192.0,0.11771918833255768,144.0,0.08828939497470856,-17632.0,10.810545921325684,2761.0,4021.148681640625,2531.0,1854.21240234375,34856.0,485.5923156738281,2.059340715408325,0.95814648270607,0.4953595232552156,0.16541514273857016,0.2540170323566304,49.651760272580276,187.6492592304503,19.76592344414629,16.344754866486433,-18.624084718766852,-40.09961877090083,14.366260969267675,-21.36716545882892,-0.09341655300379675,0.17643347214443508,0.9798696737484774,0.18743510618683606,0.14575416915057504,0.9714030075843677,35.05393153835541,35.73572178036666,2.2499559480079148,2.71874021895326
410684.982039,7732656.0,2100461.0,1711300673536.0,-176.0,0.10790925472974777,96.0,0.05885959416627884,-17600.0,10.790925979614258,2762.0,4022.605224609375,2511.0,1839.5604248046875,34855.0,485.93804931640625,2.057875394821167,0.95814648270607,0.4950362037576851,0.16482474228582567,0.1527385903604781,49.62220091943461,187.12146839218713,19.76592344414629,16.344754866486433,-18.624084718766852,-40.09961877090083,14.366260969267675,-21.36716545882892,-0.09413467951804284,0.17694941391361885,0.9797078988288612,0.18743510618683606,0.14575416915057504,0.9714030075843677,35.0906144249587,35.73572178036666,2.25193944551184,2.71874021895326
410685.0497161,7732912.0,2100468.75,1711300673536.0,-144.0,0.08828939497470856,96.0,0.05885959416627884,-17584.0,10.781115531921387,2772.0,4037.169189453125,2539.0,1860.0732421875,34856.0,485.5923156738281,2.059340715408325,0.9267381131649017,0.4950825433589315,0.1656845587797926,0.16706235730563535,49.44051219885988,187.04071340509387,19.76592344414629,16.344754866486433,-18.624084718766852,-40.09961877090083,14.366260969267675,-21.36716545882892,-0.09413467951804284,0.17694941391361885,0.9797078988288612,0.18761115472993967,0.14420011157145543,0.9716009378565248,35.0906144249587,35.9039020392678,2.25193944551184,2.7312457985074983
410685.1168123,7733168.0,2100476.5,1711300673536.0,-160.0,0.09809932857751846,80.0,0.04904966428875923,-17648.0,10.820355415344238,2777.0,4044.451171875,2548.0,1866.6666259765625,34855.0,485.93804931640625,2.057875394821167,0.9267381131649017,0.49554854415367294,0.1669928525791794,0.31315287685155013,49.39813538895907,187.80596408996666,19.76592344414629,16.344754866486433,-18.624084718766852,-40.09961877090083,14.366260969267675,-21.36716545882892,-0.09309488050971783,0.17542954589154713,0.9800805159022226,0.18761115472993967,0.14420011157145543,0.9716009378565248,34.918463038581784,35.9039020392678,2.2410314469856267,2.7312457985074983
410685.1841776,7733424.0,2100484.5,1711300673536.0,-208.0,0.12752912938594818,80.0,0.04904966428875923,-17584.0,10.781115531921387,2762.0,4022.605224609375,2536.0,1857.87548828125,34856.0,485.5923156738281,2.059340715408325,0.9625157713890076,0.49561159516911396,0.16707570162652263,0.3324882051717477,49.33253019141654,187.6153385374559,19.76592344414629,16.344754866486433,-18.624084718766852,-40.09961877090083,14.366260969267675,-21.36716545882892,-0.09309488050971783,0.17542954589154713,0.9800805159022226,0.18787085111642665,0.14387624933130438,0.9715987691321689,34.918463038581784,35.805596790146964,2.2410314469856267,2.7238238516726128
410685.2517047,7733680.0,2100492.25,1711300673536.0,-224.0,0.1373390555381775,64.0,0.039239730685949326,-17632.0,10.810545921325684,2762.0,4022.605224609375,2521.0,1846.886474609375,34855.0,485.93804931640625,2.057875394821167,0.9563292562961578,0.4954372482602052,0.1673096051961228,0.27895258935354583,49.43656057166196,188.1776442003993,19.76592344414629,16.344754866486433,-18.624084718766852,-40.09961877090083,14.366260969267675,-21.36716545882892,-0.09309488050971783,0.17542954589154713,0.9800805159022226,0.18714379430108283,0.1440094578081005,0.9717193403017205,34.918463038581784,35.9046921694971,2.2410314469856267,2.731261049570598
410685.3194392,7733936.0,2100500.0,1711300673536.0,-208.0,0.12752912938594818,32.0,0.019619865342974663,-17664.0,10.83016586303711,2768.0,4031.343505859375,2528.0,1852.0146484375,34855.0,485.93804931640625,2.057875394821167,0.9563292562961578,0.49419138199895185,0.16515452565405153,-0.10951560264269133,49.30358767622221,186.1507050459615,19.76592344414629,16.344754866486433,-18.624084718766852,-40.09961877090083,14.366260969267675,-21.36716545882892,-0.09585918763508691,0.1772152620988559,0.9794926069272677,0.18714379430108283,0.1440094578081005,0.9717193403017205,34.86175947162994,35.9046921694971,2.2374525254582727,2.731261049570598
410685.3866295,7734192.0,2100507.75,1711300673536.0,-144.0,0.08828939497470856,80.0,0.04904966428875923,-17664.0,10.83016586303711,2767.0,4029.88720703125,2535.0,1857.142822265625,34855.0,485.93804931640625,2.057875394821167,0.9563292562961578,0.492602685767282,0.1629078521316495,-0.5933852464623577,49.04785095078532,183.6304492287668,19.76592344414629,16.344754866486433,-18.624084718766852,-40.09961877090083,14.366260969267675,-21.36716545882892,-0.09937041704627904,0.17864046936292452,0.9788836002926204,0.18714379430108283,0.1440094578081005,0.9717193403017205,34.96818650164683,35.9046921694971,2.2445380311200713,2.731261049570598
410685.453566,7734448.0,2100515.5,1711300673536.0,-128.0,0.07847946137189865,64.0,0.039239730685949326,-17680.0,10.839975357055664,2754.0,4010.953857421875,2505.0,1835.164794921875,34855.0,485.93804931640625,2.057875394821167,0.9549295008182526,0.4919395680318354,0.1656820646962005,-0.8049800372790887,49.125083722534235,185.8438267103989,19.76592344414629,16.344754866486433,-18.624084718766852,-40.09961877090083,14.366260969267675,-21.36716545882892,-0.09937041704627904,0.17864046936292452,0.9788836002926204,0.1843343722447331,0.14142448368018984,0.9726355713343678,34.96818650164683,35.79597668930644,2.2445380311200713,2.722792862064633
410685.5217148,7734704.0,2100523.5,1711300673536.0,-192.0,0.11771918833255768,80.0,0.04904966428875923,-17616.0,10.800735473632812,2765.0,4026.974365234375,2523.0,1848.3516845703125,34855.0,485.93804931640625,2.057875394821167,0.9461800754070282,0.4918173663159572,0.16629355395360945,-0.8445141370688702,49.12283835847771,186.26438092107176,19.76592344414629,16.344754866486433,-18.624084718766852,-40.09961877090083,14.366260969267675,-21.36716545882892,-0.09937041704627904,0.17864046936292452,0.9788836002926204,0.18381380336271233,0.14078242065980437,0.9728272178174808,34.96818650164683,35.88717673735823,2.2445380311200713,2.729461062901341
410685.5895262,7734960.0,2100531.25,1711300673536.0,-144.0,0.08828939497470856,96.0,0.05885959416627884,-17632.0,10.810545921325684,2768.0,4031.343505859375,2520.0,1846.15380859375,34853.0,486.6310119628906,2.0549449920654297,0.9461800754070282,0.49077520897021215,0.16356259333840972,-1.1574372995165483,49.18424772199522,184.5900691137063,19.76592344414629,16.344754866486433,-18.624084718766852,-40.09961877090083,14.366260969267675,-21.36716545882892,-0.10168291220139594,0.18170846148630668,0.9780810909073556,0.18381380336271233,0.14078242065980437,0.9728272178174808,34.880895123868044,35.88717673735823,2.23903532258408,2.729461062901341
410685.6573419,7735216.0,2100539.0,1711300673536.0,-176.0,0.10790925472974777,48.0,0.02942979708313942,-17680.0,10.839975357055664,2771.0,4035.712890625,2547.0,1865.93408203125,34854.0,486.2843017578125,2.056410312652588,0.9578096568584442,0.4907002080183286,0.16373998946617752,-1.1819542976394217,49.21578739657571,184.83107443331778,19.76592344414629,16.344754866486433,-18.624084718766852,-40.09961877090083,14.366260969267675,-21.36716545882892,-0.10168291220139594,0.18170846148630668,0.9780810909073556,0.18349754003253493,0.1407151231318068,0.9728966578851059,34.880895123868044,35.84931640696198,2.23903532258408,2.726463434958517
410685.7251541,7735472.0,2100547.0,1711300673536.0,-192.0,0.11771918833255768,128.0,0.07847946137189865,-17552.0,10.761495590209961,2754.0,4010.953857421875,2503.0,1833.6995849609375,34853.0,486.6310119628906,2.0549449920654297,0.9578096568584442,0.489969965797474,0.16388543140700818,-1.3977471685982756,48.887170774219,183.6955379412638,19.76592344414629,16.344754866486433,-18.624084718766852,-40.09961877090083,14.366260969267675,-21.36716545882892,-0.10327833571043565,0.18037177689401263,0.9781613402056835,0.18349754003253493,0.1407151231318068,0.9728966578851059,35.072879754171524,35.84931640696198,2.2512624989378294,2.726463434958517
410685.792681,7735728.0,2100554.75,1711300673536.0,-224.0,0.1373390555381775,112.0,0.06866952776908875,-17616.0,10.800735473632812,2765.0,4026.974365234375,2528.0,1852.0146484375,34854.0,486.2843017578125,2.056410312652588,0.9578096568584442,0.48941840311973694,0.16355174278494422,-1.5591038075556902,48.72119213299121,182.84183623658504,19.76592344414629,16.344754866486433,-18.624084718766852,-40.09961877090083,14.366260969267675,-21.36716545882892,-0.10448681549475453,0.18011358162471108,0.9780805708642227,0.18349754003253493,0.1407151231318068,0.9728966578851059,35.172439519231645,35.84931640696198,2.2574099400586656,2.726463434958517
410685.8595088,7735984.0,2100562.5,1711300673536.0,-224.0,0.1373390555381775,128.0,0.07847946137189865,-17536.0,10.751686096191406,2761.0,4021.148681640625,2508.0,1837.3626708984375,34853.0,486.6310119628906,2.0549449920654297,0.9436584711074829,0.48979940234726066,0.16409564648262254,-1.4343961416609528,48.33028737314427,181.74584475088596,19.76592344414629,16.344754866486433,-18.624084718766852,-40.09961877090083,14.366260969267675,-21.36716545882892,-0.10448681549475453,0.18011358162471108,0.9780805708642227,0.185078637826249,0.1386751188306205,0.9728900807581983,35.172439519231645,35.9185635934642,2.2574099400586656,2.7317698968283737
410685.9267124,7736240.0,2100570.25,1711300673536.0,-192.0,0.11771918833255768,80.0,0.04904966428875923,-17664.0,10.83016586303711,2771.0,4035.712890625,2545.0,1864.4688720703125,34853.0,486.6310119628906,2.0549449920654297,0.9436584711074829,0.4899937233835866,0.16470429668750908,-1.3777477000443223,48.30002503318716,182.04800332416036,19.76592344414629,16.344754866486433,-18.624084718766852,-40.09961877090083,14.366260969267675,-21.36716545882892,-0.10405587626069818,0.17937409864124407,0.9782623918725792,0.185078637826249,0.1386751188306205,0.9728900807581983,34.82323375599698,35.9185635934642,2.235218077291712,2.7317698968283737
410685.9937068,7736496.0,2100578.0,1711300673536.0,-160.0,0.09809932857751846,64.0,0.039239730685949326,-17712.0,10.85959529876709,2755.0,4012.41015625,2507.0,1836.6300048828125,34852.0,486.9782409667969,2.0534799098968506,0.9796532988548279,0.4896939278589577,0.1647889181601262,-1.4757243686591401,48.52333246105565,182.94716320734108,19.76592344414629,16.344754866486433,-18.624084718766852,-40.09961877090083,14.366260969267675,-21.36716545882892,-0.10405587626069818,0.17937409864124407,0.9782623918725792,0.18382612745426363,0.1394351357799142,0.9730189092588107,34.82323375599698,35.72905910767964,2.235218077291712,2.7172627367343987
410686.060519,7736752.0,2100586.0,1711300673536.0,-144.0,0.08828939497470856,96.0,0.05885959416627884,-17632.0,10.810545921325684,2762.0,4022.605224609375,2522.0,1847.6190185546875,34853.0,486.6310119628906,2.0549449920654297,0.9796532988548279,0.48892203347278984,0.16420266045210052,-1.6997079882603003,48.31598845708233,181.76284148344809,19.76592344414629,16.344754866486433,-18.624084718766852,-40.09961877090083,14.366260969267675,-21.36716545882892,-0.10574676504718769,0.17921566476590697,0.9781100997252655,0.18382612745426363,0.1394351357799142,0.9730189092588107,35.08340463708396,35.72905910767964,2.251466966336407,2.7172627367343987
410686.1277022,7737008.0,2100593.75,1711300673536.0,-144.0,0.08828939497470856,64.0,0.039239730685949326,-17712.0,10.85959529876709,2770.0,4034.25634765625,2524.0,1849.084228515625,34852.0,486.9782409667969,2.0534799098968506,0.9446426630020142,0.4885519336459428,0.1663072502682834,-1.8231095696599997,48.26389824258744,183.0099710237829,19.76592344414629,16.344754866486433,-18.624084718766852,-40.09961877090083,14.366260969267675,-21.36716545882892,-0.10574676504718769,0.17921566476590697,0.9781100997252655,0.1822422124469949,0.13708062730468884,0.9736512094277794,35.08340463708396,35.84757917839358,2.251466966336407,2.726041678654839
410686.1946885,7737264.0,2100601.5,1711300673536.0,-144.0,0.08828939497470856,48.0,0.02942979708313942,-17664.0,10.83016586303711,2761.0,4021.148681640625,2526.0,1850.5494384765625,34853.0,486.6310119628906,2.0549449920654297,0.9446426630020142,0.48826175865855903,0.1641290104587776,-1.9074583605891142,48.53646182614788,182.53991651941558,19.76592344414629,16.344754866486433,-18.624084718766852,-40.09961877090083,14.366260969267675,-21.36716545882892,-0.10640395831561791,0.18246659080620223,0.9774375381037554,0.1822422124469949,0.13708062730468884,0.9736512094277794,34.75505199997772,35.84757917839358,2.23086086597448,2.726041678654839
410686.2617553,7737520.0,2100609.5,1711300673536.0,-176.0,0.10790925472974777,64.0,0.039239730685949326,-17632.0,10.810545921325684,2758.0,4016.779541015625,2506.0,1835.8974609375,34852.0,486.9782409667969,2.0534799098968506,0.9715824127197266,0.487950428223491,0.1662335069631573,-2.012821750779624,48.43865954443511,183.61967607764524,19.76592344414629,16.344754866486433,-18.624084718766852,-40.09961877090083,14.366260969267675,-21.36716545882892,-0.10640395831561791,0.18246659080620223,0.9774375381037554,0.18090165341189787,0.13454789545773083,0.9742543074684028,34.75505199997772,35.976248390114485,2.23086086597448,2.7353323692987077
410686.3286786,7737776.0,2100617.25,1711300673536.0,-208.0,0.12752912938594818,16.0,0.009809932671487331,-17616.0,10.800735473632812,2763.0,4024.0615234375,2520.0,1846.15380859375,34852.0,486.9782409667969,2.0534799098968506,0.9715824127197266,0.48871545688518053,0.16538710926581013,-1.7910698694392337,48.90452848912682,184.7972702058263,19.76592344414629,16.344754866486433,-18.624084718766852,-40.09961877090083,14.366260969267675,-21.36716545882892,-0.10474446556894305,0.18503365533787364,0.9771341480702542,0.18090165341189787,0.13454789545773083,0.9742543074684028,34.87976046853709,35.976248390114485,2.2397944098706755,2.7353323692987077
410686.3956979,7738032.0,2100625.0,1711300673536.0,-208.0,0.12752912938594818,80.0,0.04904966428875923,-17584.0,10.781115531921387,2767.0,4029.88720703125,2529.0,1852.7471923828125,34851.0,487.3259582519531,2.0520145893096924,0.9518664181232452,0.489448833452424,0.16102299968148137,-1.5462217750187683,49.03800607860629,182.3030538822356,19.76592344414629,16.344754866486433,-18.624084718766852,-40.088050914904166,14.335258491749883,-21.415059019092162,-0.10474446556894305,0.18503365533787364,0.9771341480702542,0.18393895447933614,0.139667181528739,0.9729643053210467,34.87976046853709,35.61484423302159,2.2397944098706755,2.7146757866594897
410686.4629476,7738288.0,2100632.75,1711300673536.0,-192.0,0.11771918833255768,64.0,0.039239730685949326,-17648.0,10.820355415344238,2771.0,4035.712890625,2542.0,1862.2711181640625,34851.0,487.3259582519531,2.0520145893096924,0.9518664181232452,0.4883892194978169,0.15973919069705578,-1.8517042469873797,48.83521508619758,180.68391445118533,19.76592344414629,16.344754866486433,-18.624084718766852,-40.088050914904166,14.335258491749883,-21.415059019092162,-0.10707012253219511,0.1856225689084242,0.9767703162836072,0.18393895447933614,0.139667181528739,0.9729643053210467,34.95171891534926,35.61484423302159,2.243921415619802,2.7146757866594897
410686.5306846,7738544.0,2100640.5,1711300673536.0,-160.0,0.09809932857751846,80.0,0.04904966428875923,-17600.0,10.790925979614258,2758.0,4016.779541015625,2523.0,1848.3516845703125,34852.0,486.9782409667969,2.0534799098968506,0.948299378156662,0.48811388345215556,0.16105877562375936,-1.943561165729717,48.839364580774365,181.58503474608153,19.76592344414629,16.344754866486433,-18.624084718766852,-40.088050914904166,14.335258491749883,-21.415059019092162,-0.10707012253219511,0.1856225689084242,0.9767703162836072,0.18276543816052948,0.13832294078141633,0.9733773978614721,34.95171891534926,35.89764113653759,2.243921415619802,2.736320077475344
410686.5975164,7738800.0,2100648.5,1711300673536.0,-160.0,0.09809932857751846,80.0,0.04904966428875923,-17648.0,10.820355415344238,2764.0,4025.51806640625,2513.0,1841.025634765625,34850.0,487.6741638183594,2.0505495071411133,0.948299378156662,0.4902023895659412,0.16353816408302113,-1.3350562718057155,49.25343811161733,184.83168480295402,19.76592344414629,16.344754866486433,-18.624084718766852,-40.088050914904166,14.335258491749883,-21.415059019092162,-0.10248230187160688,0.1845445380709816,0.977466465548187,0.18276543816052948,0.13832294078141633,0.9733773978614721,35.13484771961791,35.89764113653759,2.2561194363100014,2.736320077475344
