timestamp,confidence_008,norm_pos_x_008,norm_pos_y_008,gaze_point_3d_x_008,gaze_point_3d_y_008,gaze_point_3d_z_008,eye_center0_3d_x_008,eye_center0_3d_y_008,eye_center0_3d_z_008,eye_center1_3d_x_008,eye_center1_3d_y_008,eye_center1_3d_z_008,gaze_normal0_x_008,gaze_normal0_y_008,gaze_normal0_z_008,gaze_normal1_x_008,gaze_normal1_y_008,gaze_normal1_z_008,diameter0_2d_008,diameter1_2d_008,diameter0_3d_008,diameter1_3d_008,Timestamp RAW (no units)_008,Timestamp CAL (mSecs)_008,System Timestamp CAL (mSecs)_008,Wide Range Accelerometer X RAW (no units)_008,Wide Range Accelerometer X CAL (m/(sec ^2))_008,Wide Range Accelerometer Y RAW (no units)_008,Wide Range Accelerometer Y CAL (m/(sec ^2))_008,Wide Range Accelerometer Z RAW (no units)_008,Wide Range Accelerometer Z CAL (m/(sec ^2))_008,VSenseBatt RAW (no units)_008,VSenseBatt CAL (m Volts)_008,Internal ADC A13 RAW (no units)_008,Internal ADC A13 CAL (m Volts)_008,GSR RAW (no units)_008,GSR CAL (kOhms)_008,GSR Conductance CAL (u Siemens)_008
161252.3262042,0.9938086271286011,0.5940298612044701,0.1380079294855694,52.54963907917778,92.22702501288364,311.5892762069499,18.546124034200812,10.986962191477812,-22.180182561521256,-42.03056461618376,11.66775243025705,-23.95873537334276,0.09907690803582574,0.2695060575874931,0.95788843359637,0.2635335101649028,0.19069890155493485,0.9456130381746575,49.11003655213236,61.561790965212026,4.746093398916896,4.7828004026988555,14263667.0,1440539.0,1712693444608.0,-944.0,0.5787860155105591,64.0,0.039239730685949326,-15776.0,9.672593116760254,2719.0,3959.9794921875,2368.0,1734.798583984375,51632.0,1252.990234375,0.7980908155441284
161252.3935407,1.0,0.5944688620616014,0.13910357087831737,53.13948565531226,92.52437516574672,313.7556417804693,18.546124034200812,10.986962191477812,-22.180182561521256,-42.03056461618376,11.66775243025705,-23.95873537334276,0.10013450391042643,0.2682825699404109,0.958121883578901,0.2635335101649028,0.19069890155493485,0.9456130381746575,49.090006262620875,61.561790965212026,4.744293635299225,4.7828004026988555,14263923.0,1440546.875,1712693444608.0,-912.0,0.5591661334037781,16.0,0.009809932671487331,-15776.0,9.672593116760254,2733.0,3980.369140625,2380.0,1743.5897216796875,51632.0,1252.990234375,0.7980908155441284
161252.4607114,1.0,0.5924807897925706,0.1501946521968205,49.9959941417132,85.62975628049148,302.1981749807925,nan,nan,nan,-250.17150082027337,-97.04655112039164,-53.51075333367042,nan,nan,nan,0.6003349899239733,0.36535261480176634,0.7114178566289259,nan,61.561790965212026,nan,4.7828004026988555,14264179.0,1440554.75,1712693444608.0,-944.0,0.5787860155105591,0.0,0.0,-15760.0,9.6627836227417,2747.0,4000.759033203125,2419.0,1772.1611328125,51632.0,1252.990234375,0.7980908155441284
161252.5277995,1.0,0.5942430499834989,0.14067642510951872,53.20162628536063,92.36973531623669,314.9815919218292,18.546124034200812,10.986962191477812,-22.180182561521256,-42.03056461618376,11.66775243025705,-23.95873537334276,0.09999676971111184,0.2680896348882139,0.9581902700992361,0.2628501059303458,0.18852265078190192,0.9462394157688482,49.15374966911296,61.89599802676916,4.750681198192363,4.809128659845677,14264435.0,1440562.5,1712693444608.0,-896.0,0.54935622215271,16.0,0.009809932671487331,-15776.0,9.672593116760254,2730.0,3976.0,2395.0,1754.5787353515625,51632.0,1252.990234375,0.7980908155441284
161252.5948905,0.9953851699829102,0.5943951207103961,0.14153260114564759,53.413348948788595,92.33817812462377,315.8106596626541,18.546124034200812,10.986962191477812,-22.180182561521256,-42.03056461618376,11.66775243025705,-23.95873537334276,0.10036100600248338,0.2668675017799613,0.9584932993860165,0.2628501059303458,0.18852265078190192,0.9462394157688482,49.332325054992175,61.89599802676916,4.768499767772957,4.809128659845677,14264691.0,1440570.25,1712693444608.0,-928.0,0.568976104259491,16.0,0.009809932671487331,-15744.0,9.652973175048828,2744.0,3996.3896484375,2414.0,1768.4981689453125,51633.0,1252.2935791015625,0.7985348105430603
161252.6626012,0.9953851699829102,0.5939517856455941,0.14302338867788644,53.80276788295197,92.97182807057246,319.6920064704832,18.546124034200812,10.986962191477812,-22.180182561521256,-42.03056461618376,11.66775243025705,-23.95873537334276,0.10036100600248338,0.2668675017799613,0.9584932993860165,0.26109290642428,0.18707069765426015,0.9470137529593066,49.332325054992175,61.86894024498014,4.768499767772957,4.806494444681276,14264947.0,1440578.125,1712693444608.0,-912.0,0.5591661334037781,16.0,0.009809932671487331,-15776.0,9.672593116760254,2732.0,3978.912841796875,2392.0,1752.3809814453125,51632.0,1252.990234375,0.7980908155441284
161252.7300505,1.0,0.5937876425997565,0.1429547822119962,53.579232143844706,92.75954825077679,318.8985206081143,18.546124034200812,10.986962191477812,-22.180182561521256,-42.03056461618376,11.66775243025705,-23.95873537334276,0.09996369479375933,0.26675533120728573,0.9585660399762093,0.26109290642428,0.18707069765426015,0.9470137529593066,49.38611218791126,61.86894024498014,4.77388496304104,4.806494444681276,14265203.0,1440586.0,1712693444608.0,-896.0,0.54935622215271,16.0,0.009809932671487331,-15776.0,9.672593116760254,2738.0,3987.6513671875,2404.0,1761.172119140625,51633.0,1252.2935791015625,0.7985348105430603
161252.7978141,1.0,0.5938631055115614,0.1436204585380706,53.50477881842009,92.35832057064039,318.26139683239614,18.546124034200812,10.986962191477812,-22.180182561521256,-42.03056461618376,11.66775243025705,-23.95873537334276,0.09996369479375933,0.26675533120728573,0.9585660399762093,0.2613783891614998,0.1857222324999887,0.9472003959218764,49.38611218791126,62.0741727206959,4.77388496304104,4.823377309209358,14265459.0,1440593.75,1712693444608.0,-912.0,0.5591661334037781,32.0,0.019619865342974663,-15744.0,9.652973175048828,2738.0,3987.6513671875,2403.0,1760.4395751953125,51631.0,1253.687744140625,0.7976468205451965
161252.8648382,1.0,0.5944503290862886,0.14446538992752234,54.31366928367139,92.9448514317413,321.19347572861216,18.546124034200812,10.986962191477812,-22.180182561521256,-42.03056461618376,11.66775243025705,-23.95873537334276,0.10138285117295233,0.26615258080911913,0.9585845404640575,0.2613783891614998,0.1857222324999887,0.9472003959218764,49.4785614206935,62.0741727206959,4.782930204629879,4.823377309209358,14265715.0,1440601.5,1712693444608.0,-912.0,0.5591661334037781,-16.0,-0.009809932671487331,-15824.0,9.70202350616455,2737.0,3986.19482421875,2409.0,1764.835205078125,51633.0,1252.2935791015625,0.7985348105430603
161252.9327035,1.0,0.5943860679964159,0.1449316718009419,54.36970507917333,92.95763835363829,321.7755425039276,18.546124034200812,10.986962191477812,-22.180182561521256,-42.03056461618376,11.66775243025705,-23.95873537334276,0.10138285117295233,0.26615258080911913,0.9585845404640575,0.2611196620867022,0.1850768258833867,0.9473980634309198,49.4785614206935,62.03571846786634,4.782930204629879,4.820484642198894,14265971.0,1440609.375,1712693444608.0,-880.0,0.5395463109016418,0.0,0.0,-15760.0,9.6627836227417,2732.0,3978.912841796875,2387.0,1748.7178955078125,51632.0,1252.990234375,0.7980908155441284
161252.9995075,0.992654412984848,0.594339063632681,0.14481582970851892,54.3037611975637,92.924121467601,321.53115253551124,18.546124034200812,10.986962191477812,-22.180182561521256,-42.03056461618376,11.66775243025705,-23.95873537334276,0.10126941285421541,0.2662815937095295,0.9585607017146465,0.2611196620867022,0.1850768258833867,0.9473980634309198,49.338133143315765,62.03571846786634,4.7690825050025545,4.820484642198894,14266227.0,1440617.25,1712693444608.0,-896.0,0.54935622215271,32.0,0.019619865342974663,-15792.0,9.682403564453125,2737.0,3986.19482421875,2402.0,1759.7069091796875,51633.0,1252.2935791015625,0.7985348105430603
161253.0668404,0.992654412984848,0.59423382288755,0.14545345258034514,54.39684806641479,92.98575004205479,322.48366295157683,18.546124034200812,10.986962191477812,-22.180182561521256,-42.03056461618376,11.66775243025705,-23.95873537334276,0.10126941285421541,0.2662815937095295,0.9585607017146465,0.2606976400523405,0.18423843666288578,0.9476776556019224,49.338133143315765,62.12228183377016,4.7690825050025545,4.826814875186503,14266483.0,1440625.0,1712693444608.0,-848.0,0.5199264287948608,96.0,0.05885959416627884,-15696.0,9.623543739318848,2739.0,3989.107666015625,2406.0,1762.6373291015625,51631.0,1253.687744140625,0.7976468205451965
161253.1347022,1.0,0.5945240500277917,0.1461732379964824,54.807179449216775,93.19300502959993,324.00739535069545,18.546124034200812,10.986962191477812,-22.180182561521256,-42.03056461618376,11.66775243025705,-23.95873537334276,0.10197001304670328,0.2654769724190578,0.9587095981341095,0.2606976400523405,0.18423843666288578,0.9476776556019224,49.49677327494506,62.12228183377016,4.784768521583714,4.826814875186503,14266739.0,1440632.75,1712693444608.0,-816.0,0.5003065466880798,48.0,0.02942979708313942,-15760.0,9.6627836227417,2719.0,3959.9794921875,2372.0,1737.7288818359375,51632.0,1252.990234375,0.7980908155441284
161253.2017884,1.0,0.594454686074598,0.14660371384287185,54.86971151404944,93.23097685096616,324.6436510304229,18.546124034200812,10.986962191477812,-22.180182561521256,-42.03056461618376,11.66775243025705,-23.95873537334276,0.10197001304670328,0.2654769724190578,0.9587095981341095,0.2604192447734696,0.18366769495235646,0.9478649665340017,49.49677327494506,62.02815177249274,4.784768521583714,4.819421843423103,14266995.0,1440640.625,1712693444608.0,-816.0,0.5003065466880798,64.0,0.039239730685949326,-15680.0,9.613734245300293,2731.0,3977.456298828125,2375.0,1739.9267578125,51632.0,1252.990234375,0.7980908155441284
161253.2689219,1.0,0.5942443594075427,0.1471574648092535,55.06756888514654,93.59231873350807,326.5655296852152,18.546124034200812,10.986962191477812,-22.180182561521256,-42.03056461618376,11.66775243025705,-23.95873537334276,0.10197001304670328,0.2654769724190578,0.9587095981341095,0.25958597887049323,0.1832420010373226,0.9481758743132443,49.49677327494506,62.20145920385245,4.784768521583714,4.833197440929471,14267251.0,1440648.5,1712693444608.0,-880.0,0.5395463109016418,80.0,0.04904966428875923,-15648.0,9.594114303588867,2739.0,3989.107666015625,2402.0,1759.7069091796875,51632.0,1252.990234375,0.7980908155441284
161253.3367921,1.0,0.5940705923323079,0.14707122888543978,54.822651458239164,93.3654922599589,325.68857217515045,18.546124034200812,10.986962191477812,-22.180182561521256,-42.03056461618376,11.66775243025705,-23.95873537334276,0.10154903279409923,0.26538185886661053,0.958780612508975,0.25958597887049323,0.1832420010373226,0.9481758743132443,49.39321589158757,62.20145920385245,4.774616424915178,4.833197440929471,14267507.0,1440656.25,1712693444608.0,-896.0,0.54935622215271,64.0,0.039239730685949326,-15744.0,9.652973175048828,2727.0,3971.630859375,2381.0,1744.3223876953125,51632.0,1252.990234375,0.7980908155441284
161253.4038617,1.0,0.5941936421804916,0.14722476735634393,54.703420063734754,92.99992950850991,324.58100234645497,18.546124034200812,10.986962191477812,-22.180182561521256,-42.03056461618376,11.66775243025705,-23.95873537334276,0.10154903279409923,0.26538185886661053,0.958780612508975,0.26006623754618424,0.18266164206115698,0.9481562511569985,49.39321589158757,62.23721387743179,4.774616424915178,4.836209829630986,14267763.0,1440664.0,1712693444608.0,-912.0,0.5591661334037781,-32.0,-0.019619865342974663,-15664.0,9.603923797607422,2746.0,3999.302490234375,2415.0,1769.230712890625,51631.0,1253.687744140625,0.7976468205451965
161253.4710976,1.0,0.5942454380911726,0.14734670364832048,54.776989168084526,93.03889599460956,324.85422981441087,18.546124034200812,10.986962191477812,-22.180182561521256,-42.03056461618376,11.66775243025705,-23.95873537334276,0.1016741083193217,0.26524906469012566,0.9588041037555505,0.26006623754618424,0.18266164206115698,0.9481562511569985,49.48861742011922,62.23721387743179,4.784003709827228,4.836209829630986,14268019.0,1440671.875,1712693444608.0,-832.0,0.5101165175437927,-16.0,-0.009809932671487331,-15744.0,9.652973175048828,2738.0,3987.6513671875,2410.0,1765.5677490234375,51632.0,1252.990234375,0.7980908155441284
161253.5388007,1.0,0.5940481174956249,0.14714399071366602,54.96872645654946,93.6127741401528,326.63806825078746,18.546124034200812,10.986962191477812,-22.180182561521256,-42.03056461618376,11.66775243025705,-23.95873537334276,0.1016741083193217,0.26524906469012566,0.9588041037555505,0.25929523036225144,0.18351674776986424,0.9482022921293531,49.48861742011922,62.1960391192605,4.784003709827228,4.83298445205504,14268275.0,1440679.75,1712693444608.0,-864.0,0.529736340045929,48.0,0.02942979708313942,-15792.0,9.682403564453125,2737.0,3986.19482421875,2409.0,1764.835205078125,51631.0,1253.687744140625,0.7976468205451965
161253.6066921,1.0,0.5941883571262674,0.14731235178973823,55.16822065762098,93.76779306834905,327.3639398941609,18.546124034200812,10.986962191477812,-22.180182561521256,-42.03056461618376,11.66775243025705,-23.95873537334276,0.10201347254445409,0.26516032597387185,0.9587926016343951,0.25929523036225144,0.18351674776986424,0.9482022921293531,49.47282410370304,62.1960391192605,4.782426819711971,4.83298445205504,14268531.0,1440687.5,1712693444608.0,-896.0,0.54935622215271,48.0,0.02942979708313942,-15776.0,9.672593116760254,2737.0,3986.19482421875,2408.0,1764.1025390625,51632.0,1252.990234375,0.7980908155441284
161253.6744593,1.0,0.5942096196938673,0.14717610202592146,55.14874814908177,93.75715441560915,327.16548322672605,18.546124034200812,10.986962191477812,-22.180182561521256,-42.03056461618376,11.66775243025705,-23.95873537334276,0.10201347254445409,0.26516032597387185,0.9587926016343951,0.259380749612657,0.18369927961488086,0.9481435552696386,49.47282410370304,62.34647884586472,4.782426819711971,4.844877585872278,14268787.0,1440695.25,1712693444608.0,-912.0,0.5591661334037781,0.0,0.0,-15760.0,9.6627836227417,2747.0,4000.759033203125,2431.0,1780.952392578125,51631.0,1253.687744140625,0.7976468205451965
161253.741265,1.0,0.594398709080225,0.1477615297522631,55.422845348488664,93.8617311154801,328.2010032938423,18.546124034200812,10.986962191477812,-22.180182561521256,-42.03056461618376,11.66775243025705,-23.95873537334276,0.10246966816857164,0.2644400219460983,0.9589428772865305,0.259380749612657,0.18369927961488086,0.9481435552696386,49.52311641029326,62.34647884586472,4.7874427326283095,4.844877585872278,14269043.0,1440703.125,1712693444608.0,-896.0,0.54935622215271,0.0,0.0,-15744.0,9.652973175048828,2733.0,3980.369140625,2411.0,1766.3004150390625,51633.0,1252.2935791015625,0.7985348105430603
161253.8086851,0.9893614649772644,0.5946339520677248,0.14718164342702067,55.751820756467836,94.37884662641727,329.30444742471076,18.546124034200812,10.986962191477812,-22.180182561521256,-42.03056461618376,11.66775243025705,-23.95873537334276,0.10304286347657478,0.26573636452591204,0.9585230059080999,0.259380749612657,0.18369927961488086,0.9481435552696386,49.38131089518488,62.34647884586472,4.773244358323499,4.844877585872278,14269299.0,1440711.0,1712693444608.0,-880.0,0.5395463109016418,0.0,0.0,-15792.0,9.682403564453125,2738.0,3987.6513671875,2407.0,1763.3699951171875,51631.0,1253.687744140625,0.7976468205451965
161253.8769578,0.9893614649772644,0.5945078080113544,0.14688513379487345,55.88068624992607,94.80970985823026,330.4683970794805,18.546124034200812,10.986962191477812,-22.180182561521256,-42.03056461618376,11.66775243025705,-23.95873537334276,0.10304286347657478,0.26573636452591204,0.9585230059080999,0.2588898329679663,0.1845363969459293,0.9481151684199723,49.38131089518488,62.25975824299334,4.773244358323499,4.83797777647159,14269555.0,1440718.75,1712693444608.0,-864.0,0.529736340045929,64.0,0.039239730685949326,-15776.0,9.672593116760254,2737.0,3986.19482421875,2410.0,1765.5677490234375,51632.0,1252.990234375,0.7980908155441284
161253.943244,0.9762110412120819,0.5948028810169464,0.14782241427057052,56.317324665977964,94.97282505010219,332.1229851316712,18.546124034200812,10.986962191477812,-22.180182561521256,-42.03056461618376,11.66775243025705,-23.95873537334276,0.10375523753684021,0.26457200902259614,0.9587682215871682,0.2588898329679663,0.1845363969459293,0.9481151684199723,49.429900619014695,62.25975824299334,4.778289021140269,4.83797777647159,14269811.0,1440726.5,1712693444608.0,-864.0,0.529736340045929,64.0,0.039239730685949326,-15728.0,9.643163681030273,2719.0,3959.9794921875,2366.0,1733.3333740234375,51631.0,1253.687744140625,0.7976468205451965
161254.0100158,0.9762110412120819,0.5950887986068458,0.14788812133362306,56.027531520742826,94.19481389721587,329.45477504500036,18.546124034200812,10.986962191477812,-22.180182561521256,-42.03056461618376,11.66775243025705,-23.95873537334276,0.10375523753684021,0.26457200902259614,0.9587682215871682,0.260011222015835,0.183694001119674,0.9479718763647353,49.429900619014695,62.550467574302516,4.778289021140269,4.861704292307175,14270067.0,1440734.375,1712693444608.0,-816.0,0.5003065466880798,64.0,0.039239730685949326,-15696.0,9.623543739318848,2732.0,3978.912841796875,2377.0,1741.3919677734375,51632.0,1252.990234375,0.7980908155441284
161254.0777176,0.9762110412120819,0.5949313025162711,0.1480517669662963,56.18470415079976,94.55567796200731,330.92482963103447,18.546124034200812,10.986962191477812,-22.180182561521256,-42.03056461618376,11.66775243025705,-23.95873537334276,0.10375523753684021,0.26457200902259614,0.9587682215871682,0.259390784647742,0.18381057192345507,0.9481192406490868,49.429900619014695,62.58653746769552,4.778289021140269,4.8643521093973,14270323.0,1440742.25,1712693444608.0,-832.0,0.5101165175437927,32.0,0.019619865342974663,-15728.0,9.643163681030273,2746.0,3999.302490234375,2406.0,1762.6373291015625,51631.0,1253.687744140625,0.7976468205451965
161254.145647,1.0,0.5949133802714235,0.14844507937447482,56.163193185459605,94.41241775726161,330.89152471036573,18.546124034200812,10.986962191477812,-22.180182561521256,-42.03056461618376,11.66775243025705,-23.95873537334276,0.10371008197729281,0.2638877976454314,0.958961651553443,0.259390784647742,0.18381057192345507,0.9481192406490868,49.71547589428622,62.58653746769552,4.806674547571416,4.8643521093973,14270579.0,1440750.0,1712693444608.0,-896.0,0.54935622215271,80.0,0.04904966428875923,-15776.0,9.672593116760254,2737.0,3986.19482421875,2411.0,1766.3004150390625,51632.0,1252.990234375,0.7980908155441284
161254.2128537,1.0,0.5950842804131926,0.14842897535902266,55.99133795571204,93.96857686031785,329.301976948518,18.546124034200812,10.986962191477812,-22.180182561521256,-42.03056461618376,11.66775243025705,-23.95873537334276,0.10371008197729281,0.2638877976454314,0.958961651553443,0.26006156494539906,0.18340368876636437,0.948014276994308,49.71547589428622,62.51401015813931,4.806674547571416,4.859125459189687,14270835.0,1440757.75,1712693444608.0,-896.0,0.54935622215271,32.0,0.019619865342974663,-15696.0,9.623543739318848,2746.0,3999.302490234375,2422.0,1774.3590087890625,51630.0,1254.385986328125,0.7972028255462646
161254.2807243,1.0,0.5951952514236634,0.14811332732181426,56.14734206111473,94.22565693296514,329.81945120875673,18.546124034200812,10.986962191477812,-22.180182561521256,-42.03056461618376,11.66775243025705,-23.95873537334276,0.10398086509096532,0.26457004952273827,0.9587443186744161,0.26006156494539906,0.18340368876636437,0.948014276994308,49.53998665080766,62.51401015813931,4.789383141169596,4.859125459189687,14271091.0,1440765.625,1712693444608.0,-896.0,0.54935622215271,48.0,0.02942979708313942,-15696.0,9.623543739318848,2731.0,3977.456298828125,2407.0,1763.3699951171875,51632.0,1252.990234375,0.7980908155441284
161254.3487072,1.0,0.5949735707148481,0.14992143227077626,56.355159742247466,94.21181922006647,331.94106679178526,18.546124034200812,10.986962191477812,-22.180182561521256,-42.03056461618376,11.66775243025705,-23.95873537334276,0.10398086509096532,0.26457004952273827,0.9587443186744161,0.2591641493104604,0.18082468076174302,0.9487551731292951,49.53998665080766,62.684302352864776,4.789383141169596,4.873701308868656,14271347.0,1440773.5,1712693444608.0,-832.0,0.5101165175437927,16.0,0.009809932671487331,-15776.0,9.672593116760254,2745.0,3997.84619140625,2420.0,1772.893798828125,51631.0,1253.687744140625,0.7976468205451965
161254.4165765,1.0,0.5951468468597738,0.15111133274748434,56.62090393795289,94.11591420285679,333.015404723174,18.546124034200812,10.986962191477812,-22.180182561521256,-42.03056461618376,11.66775243025705,-23.95873537334276,0.10439714417268842,0.26281409316297316,0.9591819372379313,0.2591641493104604,0.18082468076174302,0.9487551731292951,49.66318158390424,62.684302352864776,4.801880579340893,4.873701308868656,14271603.0,1440781.25,1712693444608.0,-864.0,0.529736340045929,32.0,0.019619865342974663,-15824.0,9.70202350616455,2746.0,3999.302490234375,2434.0,1783.150146484375,51631.0,1253.687744140625,0.7976468205451965
161254.4838379,1.0,0.595558425083569,0.15267881955541174,57.24376533782741,94.26332889895116,335.4006225970702,18.546124034200812,10.986962191477812,-22.180182561521256,-42.03056461618376,11.66775243025705,-23.95873537334276,0.10539112996109071,0.26075155987009263,0.9596360423362797,0.2591641493104604,0.18082468076174302,0.9487551731292951,49.74747605746838,62.684302352864776,4.810542759707035,4.873701308868656,14271859.0,1440789.0,1712693444608.0,-896.0,0.54935622215271,32.0,0.019619865342974663,-15760.0,9.6627836227417,2744.0,3996.3896484375,2429.0,1779.4871826171875,51631.0,1253.687744140625,0.7976468205451965
161254.5518405,1.0,0.5961416663572444,0.15299005618937522,56.637274992163725,92.63150146157705,329.915920617942,18.546124034200812,10.986962191477812,-22.180182561521256,-42.03056461618376,11.66775243025705,-23.95873537334276,0.10539112996109071,0.26075155987009263,0.9596360423362797,0.2614444934183564,0.17880842249072357,0.9485116366748476,49.74747605746838,62.57781434622842,4.810542759707035,4.866975362902811,14272115.0,1440796.875,1712693444608.0,-912.0,0.5591661334037781,64.0,0.039239730685949326,-15744.0,9.652973175048828,2738.0,3987.6513671875,2420.0,1772.893798828125,51631.0,1253.687744140625,0.7976468205451965
161254.6193914,1.0,0.5962451475265799,0.15252271456469668,56.53648293056253,92.51886721263512,328.94651715631176,18.546124034200812,10.986962191477812,-22.180182561521256,-42.03056461618376,11.66775243025705,-23.95873537334276,0.10539112996109071,0.26075155987009263,0.9596360423362797,0.26185636097575476,0.1793584048362758,0.9482941573325874,49.74747605746838,62.655542427606896,4.810542759707035,4.873141677058223,14272371.0,1440804.75,1712693444608.0,-848.0,0.5199264287948608,32.0,0.019619865342974663,-15712.0,9.633354187011719,2745.0,3997.84619140625,2430.0,1780.2197265625,51632.0,1252.990234375,0.7980908155441284
161254.6862354,1.0,0.5960534301261466,0.15183543850326264,56.253091834535184,92.44345438254724,327.8768281248555,18.546124034200812,10.986962191477812,-22.180182561521256,-42.03056461618376,11.66775243025705,-23.95873537334276,0.10492783719360115,0.2616390650320515,0.9594452296150244,0.26185636097575476,0.1793584048362758,0.9482941573325874,49.75513599572065,62.655542427606896,4.811056543312909,4.873141677058223,14272627.0,1440812.5,1712693444608.0,-960.0,0.5885959267616272,-16.0,-0.009809932671487331,-15776.0,9.672593116760254,2747.0,4000.759033203125,2442.0,1789.010986328125,51630.0,1254.385986328125,0.7972028255462646
161254.7538674,1.0,0.5958511973011531,0.1514673594195266,55.96000927697031,92.25989368651747,326.80751827674146,18.546124034200812,10.986962191477812,-22.180182561521256,-42.03056461618376,11.66775243025705,-23.95873537334276,0.10443788185781262,0.2619771180404732,0.9594064406998015,0.26185636097575476,0.1793584048362758,0.9482941573325874,49.56405721406445,62.655542427606896,4.792348544542325,4.873141677058223,14272883.0,1440820.25,1712693444608.0,-960.0,0.5885959267616272,-16.0,-0.009809932671487331,-15728.0,9.643163681030273,2719.0,3959.9794921875,2386.0,1747.9853515625,51632.0,1252.990234375,0.7980908155441284
161254.8216408,1.0,0.5956917636243179,0.1523698290791199,56.11063371356205,92.37212041659214,328.2912141281298,18.546124034200812,10.986962191477812,-22.180182561521256,-42.03056461618376,11.66775243025705,-23.95873537334276,0.10443788185781262,0.2619771180404732,0.9594064406998015,0.26121866709484476,0.1781949180374518,0.9486892953685198,49.56405721406445,62.66911336942687,4.792348544542325,4.873965012214447,14273139.0,1440828.125,1712693444608.0,-928.0,0.568976104259491,64.0,0.039239730685949326,-15776.0,9.672593116760254,2738.0,3987.6513671875,2396.0,1755.3114013671875,51631.0,1253.687744140625,0.7976468205451965
161254.8898391,1.0,0.5956893983807303,0.15274071241105958,56.10969353468904,92.25687173086733,328.32373997733623,18.546124034200812,10.986962191477812,-22.180182561521256,-42.03056461618376,11.66775243025705,-23.95873537334276,0.10443788185781262,0.2619771180404732,0.9594064406998015,0.2612034745503568,0.17755685243869765,0.9488131054295591,49.56405721406445,62.692524722733225,4.792348544542325,4.875392042144326,14273395.0,1440836.0,1712693444608.0,-880.0,0.5395463109016418,32.0,0.019619865342974663,-15776.0,9.672593116760254,2746.0,3999.302490234375,2424.0,1775.82421875,51632.0,1252.990234375,0.7980908155441284
161254.9575905,1.0,0.5958355488971808,0.15308035544929943,56.323366815554294,92.3682220030357,329.1132718355194,18.546124034200812,10.986962191477812,-22.180182561521256,-42.03056461618376,11.66775243025705,-23.95873537334276,0.10479170399548805,0.2616092213608515,0.9594682454738619,0.2612034745503568,0.17755685243869765,0.9488131054295591,49.763013456352866,62.692524722733225,4.811975010475429,4.875392042144326,14273651.0,1440843.75,1712693444608.0,-832.0,0.5101165175437927,-16.0,-0.009809932671487331,-15760.0,9.6627836227417,2747.0,4000.759033203125,2435.0,1783.8828125,51630.0,1254.385986328125,0.7972028255462646
161255.0247354,1.0,0.5959862259491502,0.15360688861795335,56.546723396236814,92.43149199932924,329.9571786267266,18.546124034200812,10.986962191477812,-22.180182561521256,-42.03056461618376,11.66775243025705,-23.95873537334276,0.10515591928580559,0.26093436458637476,0.9596121560386061,0.2612034745503568,0.17755685243869765,0.9488131054295591,49.79858115126428,62.692524722733225,4.815585047553453,4.875392042144326,14273907.0,1440851.5,1712693444608.0,-816.0,0.5003065466880798,16.0,0.009809932671487331,-15744.0,9.652973175048828,2743.0,3994.933349609375,2440.0,1787.5457763671875,51632.0,1252.990234375,0.7980908155441284
161255.0921182,1.0,0.5960452325882403,0.15325200993845067,56.4900985708303,92.39647297896848,329.4010826331471,18.546124034200812,10.986962191477812,-22.180182561521256,-42.03056461618376,11.66775243025705,-23.95873537334276,0.10515591928580559,0.26093436458637476,0.9596121560386061,0.26143984773227824,0.17802406510296997,0.9486604441326393,49.79858115126428,62.7364275055235,4.815585047553453,4.878838452203946,14274163.0,1440859.375,1712693444608.0,-848.0,0.5199264287948608,48.0,0.02942979708313942,-15744.0,9.652973175048828,2732.0,3978.912841796875,2402.0,1759.7069091796875,51630.0,1254.385986328125,0.7972028255462646
161255.1592534,1.0,0.5961007744104023,0.1536920920656597,56.575294900102676,92.34715554601179,329.7483363073694,18.546124034200812,10.986962191477812,-22.180182561521256,-42.03056461618376,11.66775243025705,-23.95873537334276,0.10528923752355741,0.2602733915265603,0.9597770252120905,0.26143984773227824,0.17802406510296997,0.9486604441326393,49.86836810151097,62.7364275055235,4.822459373545318,4.878838452203946,14274419.0,1440867.25,1712693444608.0,-896.0,0.54935622215271,48.0,0.02942979708313942,-15712.0,9.633354187011719,2738.0,3987.6513671875,2410.0,1765.5677490234375,51631.0,1253.687744140625,0.7976468205451965
161255.2270402,1.0,0.5959912704624493,0.15373716955752081,56.68642373153145,92.6142444253316,330.7660745894037,18.546124034200812,10.986962191477812,-22.180182561521256,-42.03056461618376,11.66775243025705,-23.95873537334276,0.10528923752355741,0.2602733915265603,0.9597770252120905,0.26101083136492675,0.17822234975355009,0.9487413451297001,49.86836810151097,62.68240364292367,4.822459373545318,4.8743037723212765,14274675.0,1440875.0,1712693444608.0,-896.0,0.54935622215271,16.0,0.009809932671487331,-15728.0,9.643163681030273,2744.0,3996.3896484375,2415.0,1769.230712890625,51630.0,1254.385986328125,0.7972028255462646
161255.2962316,1.0,0.5957387455515728,0.15320906448948046,56.31530002890038,92.40300642191372,329.39992513102516,18.546124034200812,10.986962191477812,-22.180182561521256,-42.03056461618376,11.66775243025705,-23.95873537334276,0.10467753385356231,0.26081113823986063,0.9596979546067422,0.26101083136492675,0.17822234975355009,0.9487413451297001,49.77731954108981,62.68240364292367,4.8133339357671385,4.8743037723212765,14274931.0,1440882.75,1712693444608.0,-896.0,0.54935622215271,16.0,0.009809932671487331,-15728.0,9.643163681030273,2719.0,3959.9794921875,2376.0,1740.6593017578125,51632.0,1252.990234375,0.7980908155441284
161255.3636341,1.0,0.5956847772822194,0.15380755361768705,56.36436926417842,92.34504953216023,329.9163114938126,18.546124034200812,10.986962191477812,-22.180182561521256,-42.03056461618376,11.66775243025705,-23.95873537334276,0.10467753385356231,0.26081113823986063,0.9596979546067422,0.2607902315755581,0.17731936053261502,0.9489711794860111,49.77731954108981,62.853637756093896,4.8133339357671385,4.888327722967143,14275187.0,1440890.625,1712693444608.0,-912.0,0.5591661334037781,16.0,0.009809932671487331,-15728.0,9.643163681030273,2733.0,3980.369140625,2379.0,1742.857177734375,51631.0,1253.687744140625,0.7976468205451965
161255.4310093,1.0,0.5958185786914216,0.15420322374025675,56.56232284717885,92.42249154329056,330.6579542877198,18.546124034200812,10.986962191477812,-22.180182561521256,-42.03056461618376,11.66775243025705,-23.95873537334276,0.10500119566834958,0.26033203048502634,0.9597926769942352,0.2607902315755581,0.17731936053261502,0.9489711794860111,49.90024841236577,62.853637756093896,4.8255093597146255,4.888327722967143,14275443.0,1440898.5,1712693444608.0,-880.0,0.5395463109016418,48.0,0.02942979708313942,-15696.0,9.623543739318848,2736.0,3984.738525390625,2390.0,1750.915771484375,51631.0,1253.687744140625,0.7976468205451965
161255.4988141,1.0,0.5959983530484686,0.15375985584397867,56.38421718726623,92.1069684580991,328.9809418402798,18.546124034200812,10.986962191477812,-22.180182561521256,-42.03056461618376,11.66775243025705,-23.95873537334276,0.10500119566834958,0.26033203048502634,0.9597926769942352,0.261500374697734,0.17763534322577587,0.9487166272760298,49.90024841236577,62.89248563245789,4.8255093597146255,4.891652266393487,14275699.0,1440906.25,1712693444608.0,-832.0,0.5101165175437927,16.0,0.009809932671487331,-15744.0,9.652973175048828,2737.0,3986.19482421875,2395.0,1754.5787353515625,51630.0,1254.385986328125,0.7972028255462646
161255.5658706,1.0,0.5956518827802322,0.15451626212096148,55.89628800999773,91.38732499442402,327.34288037312785,18.546124034200812,10.986962191477812,-22.180182561521256,-42.03056461618376,11.66775243025705,-23.95873537334276,0.10415624723800021,0.258588630440956,0.9603558696483128,0.261500374697734,0.17763534322577587,0.9487166272760298,49.8744013704619,62.89248563245789,4.823083043002524,4.891652266393487,14275955.0,1440914.0,1712693444608.0,-880.0,0.5395463109016418,64.0,0.039239730685949326,-15728.0,9.643163681030273,2745.0,3997.84619140625,2421.0,1773.6263427734375,51630.0,1254.385986328125,0.7972028255462646
161255.6332525,1.0,0.5957060498206085,0.15556472127289556,55.833418966826855,90.90979556232412,326.8788960775403,18.546124034200812,10.986962191477812,-22.180182561521256,-42.03056461618376,11.66775243025705,-23.95873537334276,0.10415624723800021,0.258588630440956,0.9603558696483128,0.26169563461898326,0.175679256367458,0.9490269720632518,49.8744013704619,63.0643197343203,4.823083043002524,4.905202505290787,14276211.0,1440921.875,1712693444608.0,-864.0,0.529736340045929,-16.0,-0.009809932671487331,-15744.0,9.652973175048828,2738.0,3987.6513671875,2413.0,1767.765625,51631.0,1253.687744140625,0.7976468205451965
161255.700597,1.0,0.5765040694396592,0.08020822098985492,47.64408751086961,120.42122405463928,338.66296807697995,-324.11371003605143,153.2894793152848,5.923103078534883,nan,nan,nan,0.743515595093842,-0.06573651052129104,0.6654797299968901,nan,nan,nan,49.8744013704619,nan,4.823083043002524,nan,14276467.0,1440929.75,1712693444608.0,-912.0,0.5591661334037781,32.0,0.019619865342974663,-15776.0,9.672593116760254,2743.0,3994.933349609375,2426.0,1777.2894287109375,51631.0,1253.687744140625,0.7976468205451965
161255.7681962,1.0,0.5960157716948791,0.1555994203560298,55.87010678776559,90.68110200182763,326.07105809064535,18.546124034200812,10.986962191477812,-22.180182561521256,-42.03056461618376,11.66775243025705,-23.95873537334276,0.10450224779624197,0.25881056049206996,0.960258493314854,0.2623482375075504,0.17516998514786944,0.9489409247049982,49.897322377165956,63.04147835079567,4.825291467297787,4.903418239705106,14276723.0,1440937.5,1712693444608.0,-880.0,0.5395463109016418,16.0,0.009809932671487331,-15824.0,9.70202350616455,2738.0,3987.6513671875,2417.0,1770.6959228515625,51631.0,1253.687744140625,0.7976468205451965
161255.835481,1.0,0.5959055724027877,0.1561926985424612,55.97377004768215,90.7636358271958,327.088277060898,18.546124034200812,10.986962191477812,-22.180182561521256,-42.03056461618376,11.66775243025705,-23.95873537334276,0.10450224779624197,0.25881056049206996,0.960258493314854,0.26190843783819756,0.1744180165267271,0.9492008879578848,49.897322377165956,63.01017576708171,4.825291467297787,4.900664137918434,14276979.0,1440945.25,1712693444608.0,-896.0,0.54935622215271,32.0,0.019619865342974663,-15728.0,9.643163681030273,2719.0,3959.9794921875,2372.0,1737.7288818359375,51631.0,1253.687744140625,0.7976468205451965
161255.9027713,1.0,0.5956990566647389,0.15551640613386375,55.6730371059361,90.66989783742332,325.9592233527442,18.546124034200812,10.986962191477812,-22.180182561521256,-42.03056461618376,11.66775243025705,-23.95873537334276,0.10400304788419254,0.2596595212570085,0.9600834854591446,0.26190843783819756,0.1744180165267271,0.9492008879578848,50.002465753974086,63.01017576708171,4.835586358170183,4.900664137918434,14277235.0,1440953.125,1712693444608.0,-848.0,0.5199264287948608,64.0,0.039239730685949326,-15776.0,9.672593116760254,2731.0,3977.456298828125,2382.0,1745.054931640625,51632.0,1252.990234375,0.7980908155441284
161255.9698759,1.0,0.5957800839013565,0.15528739003217018,55.59581663526254,90.54248831590945,325.22130583559647,18.546124034200812,10.986962191477812,-22.180182561521256,-42.03056461618376,11.66775243025705,-23.95873537334276,0.10400304788419254,0.2596595212570085,0.9600834854591446,0.2622285020759724,0.17461122033707271,0.9490769907817751,50.002465753974086,63.118846777499826,4.835586358170183,4.908841010965872,14277491.0,1440961.0,1712693444608.0,-912.0,0.5591661334037781,0.0,0.0,-15824.0,9.70202350616455,2747.0,4000.759033203125,2416.0,1769.96337890625,51631.0,1253.687744140625,0.7976468205451965
161256.0368304,1.0,0.5956084365811154,0.15467956397956095,55.34761379224538,90.47881288108022,324.2858070736355,18.546124034200812,10.986962191477812,-22.180182561521256,-42.03056461618376,11.66775243025705,-23.95873537334276,0.10358844316583762,0.26044120522764197,0.959916565677482,0.2622285020759724,0.17461122033707271,0.9490769907817751,49.842228336180106,63.118846777499826,4.819736720123268,4.908841010965872,14277747.0,1440968.75,1712693444608.0,-880.0,0.5395463109016418,32.0,0.019619865342974663,-15712.0,9.633354187011719,2738.0,3987.6513671875,2416.0,1769.96337890625,51632.0,1252.990234375,0.7980908155441284
161256.1036467,1.0,0.5955720343532137,0.15492026216809063,55.38077086009993,90.49133589303727,324.61931465023247,18.546124034200812,10.986962191477812,-22.180182561521256,-42.03056461618376,11.66775243025705,-23.95873537334276,0.10358844316583762,0.26044120522764197,0.959916565677482,0.2620824278894037,0.17428541377623505,0.949177220300004,49.842228336180106,63.0880363541625,4.819736720123268,4.906319585555434,14278003.0,1440976.5,1712693444608.0,-864.0,0.529736340045929,80.0,0.04904966428875923,-15664.0,9.603923797607422,2737.0,3986.19482421875,2407.0,1763.3699951171875,51630.0,1254.385986328125,0.7972028255462646
161256.1707308,1.0,0.5957897841385256,0.15625670866680363,55.702509854504726,90.40724496051857,325.89057395030375,18.546124034200812,10.986962191477812,-22.180182561521256,-42.03056461618376,11.66775243025705,-23.95873537334276,0.10411235412589943,0.25850311112199276,0.9603836521196172,0.2620824278894037,0.17428541377623505,0.949177220300004,49.92271551200625,63.0880363541625,4.82784321565356,4.906319585555434,14278259.0,1440984.375,1712693444608.0,-912.0,0.5591661334037781,32.0,0.019619865342974663,-15680.0,9.613734245300293,2732.0,3978.912841796875,2396.0,1755.3114013671875,51632.0,1252.990234375,0.7980908155441284
161256.2380192,1.0,0.5957165276959859,0.1566320918285562,55.60302752543902,90.19495124417034,325.58025380602726,18.546124034200812,10.986962191477812,-22.180182561521256,-42.03056461618376,11.66775243025705,-23.95873537334276,0.10393297570502356,0.2577742887969202,0.9605989551297361,0.2620824278894037,0.17428541377623505,0.949177220300004,49.952417793663265,63.0880363541625,4.830922820781851,4.906319585555434,14278515.0,1440992.25,1712693444608.0,-912.0,0.5591661334037781,32.0,0.019619865342974663,-15696.0,9.623543739318848,2743.0,3994.933349609375,2413.0,1767.765625,51630.0,1254.385986328125,0.7972028255462646
161256.3047481,1.0,0.5957551098410724,0.1565865094344695,55.56579927268754,90.11429440615866,325.23127542139616,18.546124034200812,10.986962191477812,-22.180182561521256,-42.03056461618376,11.66775243025705,-23.95873537334276,0.10393297570502356,0.2577742887969202,0.9605989551297361,0.2622337523633937,0.17426742412745055,0.9491387274837106,49.952417793663265,63.126771465222454,4.830922820781851,4.909463053128981,14278771.0,1441000.0,1712693444608.0,-880.0,0.5395463109016418,48.0,0.02942979708313942,-15696.0,9.623543739318848,2729.0,3974.543701171875,2396.0,1755.3114013671875,51632.0,1252.990234375,0.7980908155441284
161256.3717176,0.949776291847229,0.595706756292703,0.15634141426519377,55.494995435369134,90.11819986585922,324.95689048429574,18.546124034200812,10.986962191477812,-22.180182561521256,-42.03056461618376,11.66775243025705,-23.95873537334276,0.10381646756031304,0.25811831799183715,0.9605191695017665,0.2622337523633937,0.17426742412745055,0.9491387274837106,49.96989551304579,63.126771465222454,4.832539903899383,4.909463053128981,14279027.0,1441007.75,1712693444608.0,-864.0,0.529736340045929,80.0,0.04904966428875923,-15728.0,9.643163681030273,2745.0,3997.84619140625,2415.0,1769.230712890625,51630.0,1254.385986328125,0.7972028255462646
161256.4388104,0.949776291847229,0.5956902425054416,0.15722559139791958,55.50346372939086,89.87344537504855,325.1309450827251,18.546124034200812,10.986962191477812,-22.180182561521256,-42.03056461618376,11.66775243025705,-23.95873537334276,0.10381646756031304,0.25811831799183715,0.9605191695017665,0.262154855405025,0.1727753222271492,0.9494332624344247,49.96989551304579,63.1268966067289,4.832539903899383,4.9096187749572815,14279283.0,1441015.625,1712693444608.0,-912.0,0.5591661334037781,80.0,0.04904966428875923,-15728.0,9.643163681030273,2732.0,3978.912841796875,2399.0,1757.5091552734375,51632.0,1252.990234375,0.7980908155441284
161256.505873,1.0,0.5954322331352718,0.15649283518597323,55.13351178263072,89.72821384807938,323.75428592385947,18.546124034200812,10.986962191477812,-22.180182561521256,-42.03056461618376,11.66775243025705,-23.95873537334276,0.1031926545519409,0.2589911355259476,0.9603514293036192,0.262154855405025,0.1727753222271492,0.9494332624344247,50.02959924304973,63.1268966067289,4.838304273514459,4.9096187749572815,14279539.0,1441023.5,1712693444608.0,-944.0,0.5787860155105591,48.0,0.02942979708313942,-15712.0,9.633354187011719,2744.0,3996.3896484375,2411.0,1766.3004150390625,51631.0,1253.687744140625,0.7976468205451965
161256.5730085,1.0,0.5952662284086541,0.1567368604799294,55.291276432053934,90.0578473319553,325.24951174903276,18.546124034200812,10.986962191477812,-22.180182561521256,-42.03056461618376,11.66775243025705,-23.95873537334276,0.1031926545519409,0.2589911355259476,0.9603514293036192,0.2615027792773948,0.1727697882081406,0.9496140777772369,50.02959924304973,63.05764527090271,4.838304273514459,4.903281328431588,14279795.0,1441031.25,1712693444608.0,-912.0,0.5591661334037781,32.0,0.019619865342974663,-15712.0,9.633354187011719,2746.0,3999.302490234375,2430.0,1780.2197265625,51631.0,1253.687744140625,0.7976468205451965
161256.639928,1.0,0.5916497007934198,0.18056480103913708,49.89239717920191,77.39669913762668,306.39369170247915,nan,nan,nan,-250.17150082027337,-97.04655112039164,-53.51075333367042,nan,nan,nan,0.6001277959989506,0.34888650051603665,0.7198088900722992,nan,63.05764527090271,nan,4.903281328431588,14280051.0,1441039.0,1712693444608.0,-880.0,0.5395463109016418,32.0,0.019619865342974663,-15712.0,9.633354187011719,2746.0,3999.302490234375,2434.0,1783.150146484375,51630.0,1254.385986328125,0.7972028255462646
161256.7077103,1.0,0.5957253246656462,0.1578608346138234,55.65486087715669,89.89058153040216,325.95196744586036,18.546124034200812,10.986962191477812,-22.180182561521256,-42.03056461618376,11.66775243025705,-23.95873537334276,0.10400033367483945,0.257471764482844,0.9606727960599348,0.2619906473526176,0.17255566242858203,0.9495185327646793,49.86965541014263,63.17314907518107,4.8226526752041154,4.912904883490515,14280307.0,1441046.875,1712693444608.0,-896.0,0.54935622215271,48.0,0.02942979708313942,-15696.0,9.623543739318848,2739.0,3989.107666015625,2428.0,1778.754638671875,51631.0,1253.687744140625,0.7976468205451965
161256.7748683,1.0,0.5956533271676189,0.15795080420856333,55.55412338289561,89.76393299174741,325.6070129364962,18.546124034200812,10.986962191477812,-22.180182561521256,-42.03056461618376,11.66775243025705,-23.95873537334276,0.10382512363525574,0.25722266585229364,0.9607584732251718,0.2619906473526176,0.17255566242858203,0.9495185327646793,50.14542856809965,63.17314907518107,4.849859080330148,4.912904883490515,14280563.0,1441054.75,1712693444608.0,-912.0,0.5591661334037781,0.0,0.0,-15728.0,9.643163681030273,2739.0,3989.107666015625,2423.0,1775.091552734375,51631.0,1253.687744140625,0.7976468205451965
161256.8428195,1.0,0.5959659639930731,0.1583586991730196,55.24868236469479,88.87009472571745,322.823567116206,18.546124034200812,10.986962191477812,-22.180182561521256,-42.03056461618376,11.66775243025705,-23.95873537334276,0.10382512363525574,0.25722266585229364,0.9607584732251718,0.26320276301566314,0.17106359334889806,0.9494532914111592,50.14542856809965,63.32766400482217,4.849859080330148,4.925624590447542,14280819.0,1441062.5,1712693444608.0,-880.0,0.5395463109016418,32.0,0.019619865342974663,-15792.0,9.682403564453125,2739.0,3989.107666015625,2421.0,1773.6263427734375,51630.0,1254.385986328125,0.7972028255462646
161256.9106827,1.0,0.5958328479406834,0.1582284580201515,55.061905590354584,88.72592753268574,322.1563413151342,18.546124034200812,10.986962191477812,-22.180182561521256,-42.03056461618376,11.66775243025705,-23.95873537334276,0.1035023135731383,0.2572584416541146,0.9607837245096861,0.26320276301566314,0.17106359334889806,0.9494532914111592,50.13143113213153,63.32766400482217,4.8484922299538304,4.925624590447542,14281075.0,1441070.25,1712693444608.0,-896.0,0.54935622215271,32.0,0.019619865342974663,-15824.0,9.70202350616455,2745.0,3997.84619140625,2433.0,1782.4176025390625,51631.0,1253.687744140625,0.7976468205451965
161256.9782135,1.0,0.5952754866603044,0.1585917990847896,55.596949064763336,89.97087181154455,327.1639021110393,18.546124034200812,10.986962191477812,-22.180182561521256,-42.03056461618376,11.66775243025705,-23.95873537334276,0.1035023135731383,0.2572584416541146,0.9607837245096861,0.26102235946012203,0.1718326788306584,0.949916237542948,50.13143113213153,63.3081810452603,4.8484922299538304,4.923377517840658,14281331.0,1441078.125,1712693444608.0,-864.0,0.529736340045929,0.0,0.0,-15776.0,9.672593116760254,2733.0,3980.369140625,2407.0,1763.3699951171875,51630.0,1254.385986328125,0.7972028255462646
161257.0458203,1.0,0.5953201112089526,0.1591312538890125,55.66620989538826,89.87526344306728,327.4651774339802,18.546124034200812,10.986962191477812,-22.180182561521256,-42.03056461618376,11.66775243025705,-23.95873537334276,0.10360872141847843,0.25641631586254077,0.9609973495309495,0.26102235946012203,0.1718326788306584,0.949916237542948,50.12363401190359,63.3081810452603,4.847789084804182,4.923377517840658,14281587.0,1441086.0,1712693444608.0,-880.0,0.5395463109016418,-16.0,-0.009809932671487331,-15776.0,9.672593116760254,2738.0,3987.6513671875,2411.0,1766.3004150390625,51631.0,1253.687744140625,0.7976468205451965
161257.1128145,1.0,0.5952477171806644,0.15946905539461287,55.7345694355061,89.94504279411808,328.13601685172875,18.546124034200812,10.986962191477812,-22.180182561521256,-42.03056461618376,11.66775243025705,-23.95873537334276,0.10360872141847843,0.25641631586254077,0.9609973495309495,0.2607339420126044,0.17142828996537213,0.9500684990473667,50.12363401190359,63.344359692815345,4.847789084804182,4.926323637959055,14281843.0,1441093.75,1712693444608.0,-928.0,0.568976104259491,48.0,0.02942979708313942,-15744.0,9.652973175048828,2747.0,4000.759033203125,2430.0,1780.2197265625,51630.0,1254.385986328125,0.7972028255462646
161257.1801587,1.0,0.5952750806078576,0.15868082313823617,55.76475103623477,90.2150315487487,328.1597593200115,18.546124034200812,10.986962191477812,-22.180182561521256,-42.03056461618376,11.66775243025705,-23.95873537334276,0.1036779477242818,0.25777324372626753,0.9606267943246843,0.2607339420126044,0.17142828996537213,0.9500684990473667,50.00262234385143,63.344359692815345,4.83570401918938,4.926323637959055,14282099.0,1441101.5,1712693444608.0,-864.0,0.529736340045929,48.0,0.02942979708313942,-15760.0,9.6627836227417,2745.0,3997.84619140625,2440.0,1787.5457763671875,51631.0,1253.687744140625,0.7976468205451965
161257.2477315,1.0,0.595171317345829,0.15840131957305215,55.86993845798659,90.56579378141865,329.1046092192014,18.546124034200812,10.986962191477812,-22.180182561521256,-42.03056461618376,11.66775243025705,-23.95873537334276,0.1036779477242818,0.25777324372626753,0.9606267943246843,0.26033274857145755,0.17217407128619727,0.950043656469515,50.00262234385143,63.157786500507875,4.83570401918938,4.911077333535774,14282355.0,1441109.375,1712693444608.0,-832.0,0.5101165175437927,0.0,0.0,-15744.0,9.652973175048828,2733.0,3980.369140625,2408.0,1764.1025390625,51630.0,1254.385986328125,0.7972028255462646
161257.3152985,1.0,0.5952647091645494,0.15870441735664953,56.00707242438861,90.60899599890743,329.62247557751516,18.546124034200812,10.986962191477812,-22.180182561521256,-42.03056461618376,11.66775243025705,-23.95873537334276,0.10390368017921797,0.2573933398025531,0.9607042697263827,0.26033274857145755,0.17217407128619727,0.950043656469515,50.04831107469623,63.157786500507875,4.840246477172121,4.911077333535774,14282611.0,1441117.25,1712693444608.0,-864.0,0.529736340045929,16.0,0.009809932671487331,-15696.0,9.623543739318848,2732.0,3978.912841796875,2397.0,1756.0439453125,51631.0,1253.687744140625,0.7976468205451965
161257.3827854,1.0,0.5952396045268752,0.15975325698174114,56.02304795774626,90.32883620673557,329.8842695706478,18.546124034200812,10.986962191477812,-22.180182561521256,-42.03056461618376,11.66775243025705,-23.95873537334276,0.10390368017921797,0.2573933398025531,0.9607042697263827,0.2602174026826165,0.1704166574397278,0.9503920592093472,50.04831107469623,63.373526133887374,4.840246477172121,4.928703713084494,14282867.0,1441125.0,1712693444608.0,-880.0,0.5395463109016418,16.0,0.009809932671487331,-15696.0,9.623543739318848,2738.0,3987.6513671875,2398.0,1756.776611328125,51629.0,1255.0849609375,0.796758770942688
161257.4498056,1.0,0.5951827132975009,0.15954542863716747,56.08178068554905,90.53986926919524,330.40524969274,18.546124034200812,10.986962191477812,-22.180182561521256,-42.03056461618376,11.66775243025705,-23.95873537334276,0.10390368017921797,0.2573933398025531,0.9607042697263827,0.2599982558972554,0.17092018216962618,0.9503616144697171,50.04831107469623,63.371658156469415,4.840246477172121,4.928117054432284,14283123.0,1441132.75,1712693444608.0,-864.0,0.529736340045929,48.0,0.02942979708313942,-15712.0,9.633354187011719,2721.0,3962.892333984375,2370.0,1736.2637939453125,51631.0,1253.687744140625,0.7976468205451965
161257.5178125,0.9833024144172668,0.5948148689781813,0.15975411927027972,55.5581308358953,89.95841104610182,328.56939673072577,18.546124034200812,10.986962191477812,-22.180182561521256,-42.03056461618376,11.66775243025705,-23.95873537334276,0.1030098594327235,0.2565419916442025,0.9610281865704442,0.2599982558972554,0.17092018216962618,0.9503616144697171,50.19979350617087,63.371658156469415,4.855338767942487,4.928117054432284,14283379.0,1441140.625,1712693444608.0,-912.0,0.5591661334037781,64.0,0.039239730685949326,-15680.0,9.613734245300293,2736.0,3984.738525390625,2379.0,1742.857177734375,51630.0,1254.385986328125,0.7972028255462646
161257.5846961,0.9833024144172668,0.594974735274308,0.15966659458069377,55.40237691005807,89.59060979742571,327.1060222880389,18.546124034200812,10.986962191477812,-22.180182561521256,-42.03056461618376,11.66775243025705,-23.95873537334276,0.1030098594327235,0.2565419916442025,0.9610281865704442,0.2606249182614021,0.17067086202297047,0.9502347651173227,50.19979350617087,63.2785266168299,4.855338767942487,4.920835913723772,14283635.0,1441148.5,1712693444608.0,-864.0,0.529736340045929,48.0,0.02942979708313942,-15760.0,9.6627836227417,2745.0,3997.84619140625,2414.0,1768.4981689453125,51631.0,1253.687744140625,0.7976468205451965
161257.6528069,1.0,0.5954973462348601,0.15952304801212147,56.14556971770324,90.3673571592945,329.72083539235007,18.546124034200812,10.986962191477812,-22.180182561521256,-42.03056461618376,11.66775243025705,-23.95873537334276,0.10427938614283402,0.25749561501924645,0.9606361526985823,0.2606249182614021,0.17067086202297047,0.9502347651173227,50.16091726024696,63.2785266168299,4.851207088837994,4.920835913723772,14283891.0,1441156.25,1712693444608.0,-880.0,0.5395463109016418,80.0,0.04904966428875923,-15744.0,9.652973175048828,2747.0,4000.759033203125,2431.0,1780.952392578125,51630.0,1254.385986328125,0.7972028255462646
161257.7197134,1.0,0.5954991536390102,0.15932717901019344,56.145449573663385,90.42688769832463,329.698514770236,18.546124034200812,10.986962191477812,-22.180182561521256,-42.03056461618376,11.66775243025705,-23.95873537334276,0.10427938614283402,0.25749561501924645,0.9606361526985823,0.2606352220906837,0.1710062772165216,0.9501716340526515,50.16091726024696,63.316244620372615,4.851207088837994,4.923700232705383,14284147.0,1441164.0,1712693444608.0,-896.0,0.54935622215271,96.0,0.05885959416627884,-15744.0,9.652973175048828,2720.0,3961.435791015625,2377.0,1741.3919677734375,51629.0,1255.0849609375,0.796758770942688
161257.7867996,1.0,0.5955818746507273,0.15974086109680097,56.269171283025415,90.4222185024448,330.1801316830354,18.546124034200812,10.986962191477812,-22.180182561521256,-42.03056461618376,11.66775243025705,-23.95873537334276,0.1044789447416798,0.2569159710769489,0.9607696570517062,0.2606352220906837,0.1710062772165216,0.9501716340526515,50.13963809171906,63.316244620372615,4.849248132163639,4.923700232705383,14284403.0,1441171.875,1712693444608.0,-928.0,0.568976104259491,64.0,0.039239730685949326,-15712.0,9.633354187011719,2735.0,3983.281982421875,2389.0,1750.18310546875,51631.0,1253.687744140625,0.7976468205451965
161257.8537068,1.0,0.5957165697301011,0.160532201514616,56.12735785921363,89.82703124244763,328.96024172409204,18.546124034200812,10.986962191477812,-22.180182561521256,-42.03056461618376,11.66775243025705,-23.95873537334276,0.1044789447416798,0.2569159710769489,0.9607696570517062,0.26114838067045565,0.1692953475800797,0.9503371025909378,50.13963809171906,63.33724682279643,4.849248132163639,4.925705909357014,14284659.0,1441179.75,1712693444608.0,-944.0,0.5787860155105591,16.0,0.009809932671487331,-15792.0,9.682403564453125,2746.0,3999.302490234375,2417.0,1770.6959228515625,51630.0,1254.385986328125,0.7972028255462646
161257.9209905,1.0,0.5956116784185653,0.16015099345745354,55.972917633414596,89.79171967939033,328.37466576890006,18.546124034200812,10.986962191477812,-22.180182561521256,-42.03056461618376,11.66775243025705,-23.95873537334276,0.10422536833896721,0.25741075582262857,0.9606647570205902,0.26114838067045565,0.1692953475800797,0.9503371025909378,50.0959999273342,63.33724682279643,4.84498006051077,4.925705909357014,14284915.0,1441187.5,1712693444608.0,-832.0,0.5101165175437927,-16.0,-0.009809932671487331,-15712.0,9.633354187011719,2744.0,3996.3896484375,2424.0,1775.82421875,51630.0,1254.385986328125,0.7972028255462646
161257.9888463,1.0,0.5956576129297098,0.16002983780778046,55.92839781203256,89.7172788992425,327.95087115394995,18.546124034200812,10.986962191477812,-22.180182561521256,-42.03056461618376,11.66775243025705,-23.95873537334276,0.10422536833896721,0.25741075582262857,0.9606647570205902,0.2613297935218318,0.16939041800830532,0.9502702906567205,50.0959999273342,63.37910964650443,4.84498006051077,4.928593048766439,14285171.0,1441195.25,1712693444608.0,-784.0,0.4806866943836212,48.0,0.02942979708313942,-15744.0,9.652973175048828,2744.0,3996.3896484375,2425.0,1776.5567626953125,51629.0,1255.0849609375,0.796758770942688
161258.0566698,1.0,0.5957684503468837,0.1601760940037953,56.08841422111945,89.82981239657877,328.5308909417147,18.546124034200812,10.986962191477812,-22.180182561521256,-42.03056461618376,11.66775243025705,-23.95873537334276,0.10449414847672933,0.2573173097906798,0.9606605930380462,0.2613297935218318,0.16939041800830532,0.9502702906567205,50.2082872311888,63.37910964650443,4.856299057147218,4.928593048766439,14285427.0,1441203.125,1712693444608.0,-800.0,0.4904966354370117,64.0,0.039239730685949326,-15744.0,9.652973175048828,2735.0,3983.281982421875,2416.0,1769.96337890625,51631.0,1253.687744140625,0.7976468205451965
161258.1238836,1.0,0.5954409672754365,0.16043271053396113,56.41537750762697,90.56593620993232,331.5678742297166,18.546124034200812,10.986962191477812,-22.180182561521256,-42.03056461618376,11.66775243025705,-23.95873537334276,0.10449414847672933,0.2573173097906798,0.9606605930380462,0.26004565784552236,0.16976595381318293,0.9505555095635339,50.2082872311888,63.2838532228749,4.856299057147218,4.920785288832648,14285683.0,1441211.0,1712693444608.0,-832.0,0.5101165175437927,64.0,0.039239730685949326,-15760.0,9.6627836227417,2729.0,3974.543701171875,2389.0,1750.18310546875,51630.0,1254.385986328125,0.7972028255462646
161258.1917305,1.0,0.5956793984272124,0.1599878794037105,56.75679179454045,91.03979055568027,332.7314023831525,18.546124034200812,10.986962191477812,-22.180182561521256,-42.03056461618376,11.66775243025705,-23.95873537334276,0.10507485830537287,0.2583874080792144,0.9603099611574439,0.26004565784552236,0.16976595381318293,0.9505555095635339,50.22115765863724,63.2838532228749,4.857528642184628,4.920785288832648,14285939.0,1441218.75,1712693444608.0,-864.0,0.529736340045929,32.0,0.019619865342974663,-15808.0,9.69221305847168,2744.0,3996.3896484375,2414.0,1768.4981689453125,51631.0,1253.687744140625,0.7976468205451965
161258.2591906,1.0,0.5959581281403082,0.15980683640356752,56.474337413409074,90.39452118573449,330.126691409232,18.546124034200812,10.986962191477812,-22.180182561521256,-42.03056461618376,11.66775243025705,-23.95873537334276,0.10507485830537287,0.2583874080792144,0.9603099611574439,0.26113818184124665,0.16938119489430262,0.95032460812126,50.22115765863724,63.442559378496306,4.857528642184628,4.933834391085628,14286195.0,1441226.5,1712693444608.0,-912.0,0.5591661334037781,64.0,0.039239730685949326,-15696.0,9.623543739318848,2719.0,3959.9794921875,2367.0,1734.06591796875,51629.0,1255.0849609375,0.796758770942688
161258.3267005,1.0,0.5960435826109778,0.1599141623524084,56.59917762487278,90.48436777459403,330.5788886619356,18.546124034200812,10.986962191477812,-22.180182561521256,-42.03056461618376,11.66775243025705,-23.95873537334276,0.10528221328450368,0.25832450602090035,0.9603041732466718,0.26113818184124665,0.16938119489430262,0.95032460812126,50.14705163834033,63.442559378496306,4.850236289671269,4.933834391085628,14286451.0,1441234.375,1712693444608.0,-864.0,0.529736340045929,64.0,0.039239730685949326,-15680.0,9.613734245300293,2735.0,3983.281982421875,2391.0,1751.6483154296875,51631.0,1253.687744140625,0.7976468205451965
161258.3948212,1.0,0.595938369404462,0.15971056621963842,56.708107652619276,90.81670914732926,331.55188821217916,18.546124034200812,10.986962191477812,-22.180182561521256,-42.03056461618376,11.66775243025705,-23.95873537334276,0.10528221328450368,0.25832450602090035,0.9603041732466718,0.2607305993488097,0.1699984731844046,0.9503262985302372,50.14705163834033,63.3789876333278,4.850236289671269,4.928417389713948,14286707.0,1441242.25,1712693444608.0,-880.0,0.5395463109016418,16.0,0.009809932671487331,-15728.0,9.643163681030273,2740.0,3990.564208984375,2397.0,1756.0439453125,51629.0,1255.0849609375,0.796758770942688
161258.4617326,1.0,0.5960536253254479,0.15941362994595176,56.872473437782546,91.07020479481092,332.10135992407595,18.546124034200812,10.986962191477812,-22.180182561521256,-42.03056461618376,11.66775243025705,-23.95873537334276,0.10556326627188642,0.25897899830754506,0.9600970134573024,0.2607305993488097,0.1699984731844046,0.9503262985302372,50.22544112226568,63.3789876333278,4.857915514110628,4.928417389713948,14286963.0,1441250.0,1712693444608.0,-896.0,0.54935622215271,32.0,0.019619865342974663,-15760.0,9.6627836227417,2739.0,3989.107666015625,2414.0,1768.4981689453125,51630.0,1254.385986328125,0.7972028255462646
161258.5288219,1.0,0.5963020003977026,0.1597564292728868,56.61604971895571,90.33089986211473,329.80233941954134,18.546124034200812,10.986962191477812,-22.180182561521256,-42.03056461618376,11.66775243025705,-23.95873537334276,0.10556326627188642,0.25897899830754506,0.9600970134573024,0.26169457648772965,0.1687804692878476,0.9502784338413042,50.22544112226568,63.369198552726,4.857915514110628,4.928355978421553,14287219.0,1441257.75,1712693444608.0,-896.0,0.54935622215271,32.0,0.019619865342974663,-15728.0,9.643163681030273,2746.0,3999.302490234375,2424.0,1775.82421875,51629.0,1255.0849609375,0.796758770942688
161258.5968547,1.0,0.5961764256676462,0.15988053854210382,56.43632277206733,90.11659480863011,329.1824890410925,18.546124034200812,10.986962191477812,-22.180182561521256,-42.03056461618376,11.66775243025705,-23.95873537334276,0.10525767977731199,0.2585998748331193,0.9602327455279746,0.26169457648772965,0.1687804692878476,0.9502784338413042,50.19024294901763,63.369198552726,4.8544429639770215,4.928355978421553,14287475.0,1441265.625,1712693444608.0,-944.0,0.5787860155105591,16.0,0.009809932671487331,-15728.0,9.643163681030273,2735.0,3983.281982421875,2416.0,1769.96337890625,51630.0,1254.385986328125,0.7972028255462646
161258.6639264,1.0,0.5960185225289951,0.15960418824627898,56.598370728762276,90.60278293304034,330.63336924233477,18.546124034200812,10.986962191477812,-22.180182561521256,-42.03056461618376,11.66775243025705,-23.95873537334276,0.10525767977731199,0.2585998748331193,0.9602327455279746,0.2610829199238311,0.16965600838517517,0.950290770102949,50.19024294901763,63.52815219804344,4.8544429639770215,4.940485574057261,14287731.0,1441273.5,1712693444608.0,-880.0,0.5395463109016418,48.0,0.02942979708313942,-15712.0,9.633354187011719,2739.0,3989.107666015625,2414.0,1768.4981689453125,51629.0,1255.0849609375,0.796758770942688
161258.7318165,1.0,0.5959150003833895,0.15895502197858258,56.44108618791411,90.64680785629089,330.008747161747,18.546124034200812,10.986962191477812,-22.180182561521256,-42.03056461618376,11.66775243025705,-23.95873537334276,0.10500805986638499,0.25954467230260186,0.960005140841669,0.2610829199238311,0.16965600838517517,0.950290770102949,50.15708340927678,63.52815219804344,4.8509966407598215,4.940485574057261,14287987.0,1441281.25,1712693444608.0,-880.0,0.5395463109016418,48.0,0.02942979708313942,-15696.0,9.623543739318848,2738.0,3987.6513671875,2414.0,1768.4981689453125,51630.0,1254.385986328125,0.7972028255462646
161258.7988826,1.0,0.5960418681943829,0.1546943460789344,56.35027672466265,91.71989852012564,328.7136659869047,18.546124034200812,10.986962191477812,-22.180182561521256,-42.03056461618376,11.66775243025705,-23.95873537334276,0.10500805986638499,0.25954467230260186,0.960005140841669,0.2616491880347976,0.17673319190438186,0.9488440763792648,50.15708340927678,63.556384870946616,4.8509966407598215,4.939208338515798,14288243.0,1441289.0,1712693444608.0,-928.0,0.568976104259491,80.0,0.04904966428875923,-15728.0,9.643163681030273,2746.0,3999.302490234375,2426.0,1777.2894287109375,51630.0,1254.385986328125,0.7972028255462646
161258.8658381,0.983158141374588,0.5946000392023578,0.15074951389395808,54.2814314004781,90.8308566333082,321.018211985152,18.546124034200812,10.986962191477812,-22.180182561521256,-42.03056461618376,11.66775243025705,-23.95873537334276,0.10152296682354923,0.26416609381643885,0.9591190552194805,0.2616491880347976,0.17673319190438186,0.9488440763792648,50.18127187210017,63.556384870946616,4.852668968584028,4.939208338515798,14288499.0,1441296.875,1712693444608.0,-896.0,0.54935622215271,64.0,0.039239730685949326,-15744.0,9.652973175048828,2740.0,3990.564208984375,2420.0,1772.893798828125,51629.0,1255.0849609375,0.796758770942688
161258.932892,0.983158141374588,0.5944668074009086,0.1463067744662524,54.44469426595357,92.58870455655902,322.0646430709402,18.546124034200812,10.986962191477812,-22.180182561521256,-42.03056461618376,11.66775243025705,-23.95873537334276,0.10152296682354923,0.26416609381643885,0.9591190552194805,0.26119846317641565,0.18478211606327102,0.9474338670416307,50.18127187210017,63.433628207037785,4.852668968584028,4.925616096415627,14288755.0,1441304.75,1712693444608.0,-848.0,0.5199264287948608,48.0,0.02942979708313942,-15744.0,9.652973175048828,2745.0,3997.84619140625,2430.0,1780.2197265625,51630.0,1254.385986328125,0.7972028255462646
161258.9998969,1.0,0.5931611947624085,0.14133603709738418,52.628953348901476,92.17965169404711,315.15290749752603,18.546124034200812,10.986962191477812,-22.180182561521256,-42.03056461618376,11.66775243025705,-23.95873537334276,0.09838278372496496,0.2706794916215937,0.9576290725964841,0.26119846317641565,0.18478211606327102,0.9474338670416307,50.248221026317424,63.433628207037785,4.858305883416409,4.925616096415627,14289011.0,1441312.5,1712693444608.0,-864.0,0.529736340045929,32.0,0.019619865342974663,-15744.0,9.652973175048828,2736.0,3984.738525390625,2411.0,1766.3004150390625,51629.0,1255.0849609375,0.796758770942688
161259.0666283,1.0,0.5939400396836161,0.14063053261304626,53.66473482141346,93.47179566014141,318.71380347750176,18.546124034200812,10.986962191477812,-22.180182561521256,-42.03056461618376,11.66775243025705,-23.95873537334276,0.1002703165818591,0.27293521599855464,0.9567926794663492,0.26119846317641565,0.18478211606327102,0.9474338670416307,50.33548203365423,63.433628207037785,4.866475105833994,4.925616096415627,14289267.0,1441320.25,1712693444608.0,-944.0,0.5787860155105591,-16.0,-0.009809932671487331,-15808.0,9.69221305847168,2746.0,3999.302490234375,2429.0,1779.4871826171875,51630.0,1254.385986328125,0.7972028255462646
161259.1338529,1.0,0.5938520504207632,0.14025213048837581,53.748470233607335,93.81592564023785,319.4700281829892,18.546124034200812,10.986962191477812,-22.180182561521256,-42.03056461618376,11.66775243025705,-23.95873537334276,0.1002703165818591,0.27293521599855464,0.9567926794663492,0.26086014159678644,0.18566541032605055,0.9473543908878893,50.33548203365423,63.447117218025944,4.866475105833994,4.926101085655821,14289523.0,1441328.125,1712693444608.0,-896.0,0.54935622215271,16.0,0.009809932671487331,-15760.0,9.6627836227417,2734.0,3981.82568359375,2407.0,1763.3699951171875,51630.0,1254.385986328125,0.7972028255462646
161259.2007216,1.0,0.5904132144508571,0.15873113807676276,49.110692683321304,83.4649966044496,304.0444868595887,nan,nan,nan,-250.17150082027337,-97.04655112039164,-53.51075333367042,nan,nan,nan,0.5985643870071894,0.3610230954496826,0.7151104803865183,nan,63.447117218025944,nan,4.926101085655821,14289779.0,1441336.0,1712693444608.0,-880.0,0.5395463109016418,16.0,0.009809932671487331,-15744.0,9.652973175048828,2746.0,3999.302490234375,2429.0,1779.4871826171875,51631.0,1253.687744140625,0.7976468205451965
161259.2688482,1.0,0.5944445193483034,0.14134418652565062,54.069957615572065,93.48449416250745,319.51508736842334,18.546124034200812,10.986962191477812,-22.180182561521256,-42.03056461618376,11.66775243025705,-23.95873537334276,0.10117604489652078,0.27179678040364114,0.9570213780795662,0.26170775906962634,0.18493457917384934,0.9472635590312475,50.44939252024644,63.51554196626759,4.877752502654803,4.932386274452706,14290035.0,1441343.75,1712693444608.0,-848.0,0.5199264287948608,32.0,0.019619865342974663,-15792.0,9.682403564453125,2731.0,3977.456298828125,2402.0,1759.7069091796875,51630.0,1254.385986328125,0.7972028255462646
161259.3357011,1.0,0.5938999744626183,0.14206054250519273,54.57480661076514,94.65293024603494,324.37262897109883,18.546124034200812,10.986962191477812,-22.180182561521256,-42.03056461618376,11.66775243025705,-23.95873537334276,0.10117604489652078,0.27179678040364114,0.9570213780795662,0.25956226362527046,0.18508654895116988,0.9478240346705035,50.44939252024644,63.515744142196404,4.877752502654803,4.931603640934513,14290291.0,1441351.5,1712693444608.0,-848.0,0.5199264287948608,0.0,0.0,-15792.0,9.682403564453125,2747.0,4000.759033203125,2434.0,1783.150146484375,51630.0,1254.385986328125,0.7972028255462646
161259.403008,1.0,0.5936891886000988,0.14207697611703873,54.2826004064534,94.34123211381416,323.341138517867,18.546124034200812,10.986962191477812,-22.180182561521256,-42.03056461618376,11.66775243025705,-23.95873537334276,0.10066539278699302,0.2714779275024893,0.9571657189713773,0.25956226362527046,0.18508654895116988,0.9478240346705035,50.41692995431222,63.515744142196404,4.874447382649814,4.931603640934513,14290547.0,1441359.375,1712693444608.0,-800.0,0.4904966354370117,32.0,0.019619865342974663,-15776.0,9.672593116760254,2740.0,3990.564208984375,2417.0,1770.6959228515625,51629.0,1255.0849609375,0.796758770942688
161259.4699068,1.0,0.5937294344327654,0.1425160771947459,54.24089371334382,94.09527011896589,322.9946781546676,18.546124034200812,10.986962191477812,-22.180182561521256,-42.03056461618376,11.66775243025705,-23.95873537334276,0.10066539278699302,0.2714779275024893,0.9571657189713773,0.25971309529660985,0.18422020802003244,0.947951487729467,50.41692995431222,63.65141809825416,4.874447382649814,4.942481432485847,14290803.0,1441367.25,1712693444608.0,-896.0,0.54935622215271,96.0,0.05885959416627884,-15776.0,9.672593116760254,2741.0,3992.0205078125,2425.0,1776.5567626953125,51630.0,1254.385986328125,0.7972028255462646
161259.5378292,1.0,0.5940106817587062,0.14274146426363465,54.63333422349022,94.43835733526245,324.40641829556915,18.546124034200812,10.986962191477812,-22.180182561521256,-42.03056461618376,11.66775243025705,-23.95873537334276,0.1013458480950878,0.2714894621587932,0.9570906388689719,0.25971309529660985,0.18422020802003244,0.947951487729467,50.39138504605355,63.65141809825416,4.871862260530779,4.942481432485847,14291059.0,1441375.0,1712693444608.0,-864.0,0.529736340045929,48.0,0.02942979708313942,-15840.0,9.711833000183105,2746.0,3999.302490234375,2429.0,1779.4871826171875,51629.0,1255.0849609375,0.796758770942688
161259.6047001,1.0,0.5936552151506806,0.14275300530954482,54.141122161510836,93.91964030672756,322.6679380337315,18.546124034200812,10.986962191477812,-22.180182561521256,-42.03056461618376,11.66775243025705,-23.95873537334276,0.10048475352430855,0.2709791222248049,0.9573260309985482,0.25971309529660985,0.18422020802003244,0.947951487729467,50.4311714247022,63.65141809825416,4.875925697993834,4.942481432485847,14291315.0,1441382.75,1712693444608.0,-864.0,0.529736340045929,32.0,0.019619865342974663,-15824.0,9.70202350616455,2740.0,3990.564208984375,2424.0,1775.82421875,51630.0,1254.385986328125,0.7972028255462646
161259.6716469,1.0,0.5935653666225889,0.14305852871223235,54.222747257619545,94.05237356289136,323.4806377895057,18.546124034200812,10.986962191477812,-22.180182561521256,-42.03056461618376,11.66775243025705,-23.95873537334276,0.10048475352430855,0.2709791222248049,0.9573260309985482,0.2593555915632741,0.18391958105876105,0.9481077284929353,50.4311714247022,63.621978757197134,4.875925697993834,4.9401637835420695,14291571.0,1441390.625,1712693444608.0,-944.0,0.5787860155105591,64.0,0.039239730685949326,-15776.0,9.672593116760254,2736.0,3984.738525390625,2404.0,1761.172119140625,51629.0,1255.0849609375,0.796758770942688
161259.7389288,1.0,0.5935261147982512,0.14312091683213835,54.169220088924845,93.97756163103394,323.29796744262813,18.546124034200812,10.986962191477812,-22.180182561521256,-42.03056461618376,11.66775243025705,-23.95873537334276,0.10038946733434674,0.270820577890408,0.957380890471202,0.2593555915632741,0.18391958105876105,0.9481077284929353,50.426933177882,63.621978757197134,4.875496335294266,4.9401637835420695,14291827.0,1441398.5,1712693444608.0,-912.0,0.5591661334037781,48.0,0.02942979708313942,-15824.0,9.70202350616455,2740.0,3990.564208984375,2411.0,1766.3004150390625,51629.0,1255.0849609375,0.796758770942688
161259.806861,1.0,0.5935557320558684,0.143336494688579,54.13957025188604,93.83164430517786,323.03969302089973,18.546124034200812,10.986962191477812,-22.180182561521256,-42.03056461618376,11.66775243025705,-23.95873537334276,0.10038946733434674,0.270820577890408,0.957380890471202,0.25946833704609606,0.1834690684547269,0.9481641645785228,50.426933177882,63.67418416937445,4.875496335294266,4.944517464656721,14292083.0,1441406.25,1712693444608.0,-960.0,0.5885959267616272,-16.0,-0.009809932671487331,-15776.0,9.672593116760254,2744.0,3996.3896484375,2417.0,1770.6959228515625,51629.0,1255.0849609375,0.796758770942688
161259.8741291,1.0,0.5932899556220458,0.1440098784227538,54.38443771306652,94.30088333155857,325.4529417683483,18.546124034200812,10.986962191477812,-22.180182561521256,-42.03056461618376,11.66775243025705,-23.95873537334276,0.10038946733434674,0.270820577890408,0.957380890471202,0.2584137882472145,0.1829795902233655,0.9485466691762788,50.426933177882,63.67000030765684,4.875496335294266,4.943807366236312,14292339.0,1441414.0,1712693444608.0,-864.0,0.529736340045929,0.0,0.0,-15744.0,9.652973175048828,2745.0,3997.84619140625,2431.0,1780.952392578125,51629.0,1255.0849609375,0.796758770942688
161259.9418353,1.0,0.5931151017040279,0.14441013139176762,54.146138534189944,93.93041687146945,324.64970889114716,18.546124034200812,10.986962191477812,-22.180182561521256,-42.03056461618376,11.66775243025705,-23.95873537334276,0.09996465761188487,0.2699099292817335,0.9576824616247643,0.2584137882472145,0.1829795902233655,0.9485466691762788,50.499902896268345,63.67000030765684,4.882849388787015,4.943807366236312,14292595.0,1441421.875,1712693444608.0,-832.0,0.5101165175437927,48.0,0.02942979708313942,-15728.0,9.643163681030273,2734.0,3981.82568359375,2408.0,1764.1025390625,51630.0,1254.385986328125,0.7972028255462646
161260.0088677,1.0,0.5931366841015797,0.1445516985106825,54.1245886625769,93.82871401207336,324.4593463499144,18.546124034200812,10.986962191477812,-22.180182561521256,-42.03056461618376,11.66775243025705,-23.95873537334276,0.09996465761188487,0.2699099292817335,0.9576824616247643,0.25849632663884897,0.18267829135575925,0.948582253144956,50.499902896268345,63.75239043912042,4.882849388787015,4.9505239209755025,14292851.0,1441429.75,1712693444608.0,-848.0,0.5199264287948608,48.0,0.02942979708313942,-15712.0,9.633354187011719,2743.0,3994.933349609375,2424.0,1775.82421875,51629.0,1255.0849609375,0.796758770942688
161260.076856,0.992461770772934,0.5932806616684354,0.14449211473020207,54.32353340648051,94.05473246521751,325.15989771562704,18.546124034200812,10.986962191477812,-22.180182561521256,-42.03056461618376,11.66775243025705,-23.95873537334276,0.10031345515571595,0.27020800691630475,0.9575619268292993,0.25849632663884897,0.18267829135575925,0.948582253144956,50.15291845150432,63.75239043912042,4.848536630233181,4.9505239209755025,14293107.0,1441437.5,1712693444608.0,-864.0,0.529736340045929,32.0,0.019619865342974663,-15776.0,9.672593116760254,2739.0,3989.107666015625,2423.0,1775.091552734375,51630.0,1254.385986328125,0.7972028255462646
161260.1462872,0.992461770772934,0.5931899060667922,0.1449908552087682,54.40535694689616,94.12816420697372,325.9984377337764,18.546124034200812,10.986962191477812,-22.180182561521256,-42.03056461618376,11.66775243025705,-23.95873537334276,0.10031345515571595,0.27020800691630475,0.9575619268292993,0.25813163186834137,0.18204364866261968,0.948803546900299,50.15291845150432,63.767630240857244,4.848536630233181,4.952040856627224,14293363.0,1441445.25,1712693444608.0,-912.0,0.5591661334037781,16.0,0.009809932671487331,-15744.0,9.652973175048828,2745.0,3997.84619140625,2430.0,1780.2197265625,51629.0,1255.0849609375,0.796758770942688
161260.2135244,1.0,0.5931134865324104,0.14470595320117652,54.29581696478958,94.09985293801057,325.5771823178193,18.546124034200812,10.986962191477812,-22.180182561521256,-42.03056461618376,11.66775243025705,-23.95873537334276,0.10012945503658145,0.27057936826077844,0.9574763170468892,0.25813163186834137,0.18204364866261968,0.948803546900299,50.47201963717051,63.767630240857244,4.879878333523633,4.952040856627224,14293619.0,1441453.125,1712693444608.0,-896.0,0.54935622215271,64.0,0.039239730685949326,-15728.0,9.643163681030273,2735.0,3983.281982421875,2419.0,1772.1611328125,51630.0,1254.385986328125,0.7972028255462646
161260.2810149,1.0,0.5930534519848516,0.14482441815669223,54.35178738592985,94.21745486472605,326.1263811078695,18.546124034200812,10.986962191477812,-22.180182561521256,-42.03056461618376,11.66775243025705,-23.95873537334276,0.10012945503658145,0.27057936826077844,0.9574763170468892,0.2578937048698436,0.181991406414161,0.9488782666811911,50.47201963717051,63.786351057584845,4.879878333523633,4.953165786653699,14293875.0,1441461.0,1712693444608.0,-944.0,0.5787860155105591,64.0,0.039239730685949326,-15776.0,9.672593116760254,2745.0,3997.84619140625,2427.0,1778.02197265625,51629.0,1255.0849609375,0.796758770942688
161260.3488317,1.0,0.5933540353556321,0.14572782988043653,54.782726867213285,94.39352565713796,327.7617173689608,18.546124034200812,10.986962191477812,-22.180182561521256,-42.03056461618376,11.66775243025705,-23.95873537334276,0.10085410797678415,0.26948162738538756,0.9577098210867059,0.2578937048698436,0.181991406414161,0.9488782666811911,50.539464142808995,63.786351057584845,4.886622091082506,4.953165786653699,14294131.0,1441468.75,1712693444608.0,-928.0,0.568976104259491,0.0,0.0,-15792.0,9.682403564453125,2740.0,3990.564208984375,2423.0,1775.091552734375,51630.0,1254.385986328125,0.7972028255462646
161260.4168807,1.0,0.5933850314534235,0.14542649570030508,54.755462201335106,94.41096512888335,327.46813347719103,18.546124034200812,10.986962191477812,-22.180182561521256,-42.03056461618376,11.66775243025705,-23.95873537334276,0.10085410797678415,0.26948162738538756,0.9577098210867059,0.2580203873767467,0.1824360488305666,0.9487584348953346,50.539464142808995,63.62266877852538,4.886622091082506,4.940313336735714,14294387.0,1441476.5,1712693444608.0,-912.0,0.5591661334037781,48.0,0.02942979708313942,-15760.0,9.6627836227417,2739.0,3989.107666015625,2417.0,1770.6959228515625,51628.0,1255.7847900390625,0.7963147759437561
161260.4848634,1.0,0.5931463659963842,0.1456219909294093,54.42341482450419,94.0048146623173,326.3067156267977,18.546124034200812,10.986962191477812,-22.180182561521256,-42.03056461618376,11.66775243025705,-23.95873537334276,0.10027537665668934,0.26882572433880364,0.9579548939120656,0.2580203873767467,0.1824360488305666,0.9487584348953346,50.481652760587245,63.62266877852538,4.880872457381841,4.940313336735714,14294643.0,1441484.375,1712693444608.0,-880.0,0.5395463109016418,32.0,0.019619865342974663,-15808.0,9.69221305847168,2737.0,3986.19482421875,2416.0,1769.96337890625,51630.0,1254.385986328125,0.7972028255462646
161260.5528574,1.0,0.5931029527888084,0.14668466789165902,54.45546493880809,93.77096340796749,326.73438049778144,18.546124034200812,10.986962191477812,-22.180182561521256,-42.03056461618376,11.66775243025705,-23.95873537334276,0.10027537665668934,0.26882572433880364,0.9579548939120656,0.25783274660723116,0.18069984175610593,0.949141634302431,50.481652760587245,63.93864316873537,4.880872457381841,4.965894396651166,14294899.0,1441492.25,1712693444608.0,-880.0,0.5395463109016418,48.0,0.02942979708313942,-15744.0,9.652973175048828,2745.0,3997.84619140625,2424.0,1775.82421875,51629.0,1255.0849609375,0.796758770942688
161260.6204563,1.0,0.5936035124522627,0.14715268736687426,55.1655975622467,94.36699472385371,329.3184444935946,18.546124034200812,10.986962191477812,-22.180182561521256,-42.03056461618376,11.66775243025705,-23.95873537334276,0.10148620781326993,0.2687310025775065,0.9578539543570146,0.25783274660723116,0.18069984175610593,0.949141634302431,50.32645188187174,63.93864316873537,4.865604032544355,4.965894396651166,14295155.0,1441500.0,1712693444608.0,-864.0,0.529736340045929,16.0,0.009809932671487331,-15792.0,9.682403564453125,2731.0,3977.456298828125,2408.0,1764.1025390625,51631.0,1253.687744140625,0.7976468205451965
161260.6878491,1.0,0.5934950874051338,0.14773917937755887,55.26702650820276,94.45962730662765,330.3437027383553,18.546124034200812,10.986962191477812,-22.180182561521256,-42.03056461618376,11.66775243025705,-23.95873537334276,0.10148620781326993,0.2687310025775065,0.9578539543570146,0.2573968880517149,0.17995668766689032,0.9494010915231003,50.32645188187174,63.92214962772871,4.865604032544355,4.96404240827285,14295411.0,1441507.75,1712693444608.0,-880.0,0.5395463109016418,0.0,0.0,-15792.0,9.682403564453125,2747.0,4000.759033203125,2427.0,1778.02197265625,51628.0,1255.7847900390625,0.7963147759437561
161260.7547495,1.0,0.593075901177702,0.14729068689781322,54.66862872103208,93.97452415528016,328.1559715400101,18.546124034200812,10.986962191477812,-22.180182561521256,-42.03056461618376,11.66775243025705,-23.95873537334276,0.10047234617523061,0.26890539844145617,0.9579118927871636,0.2573968880517149,0.17995668766689032,0.9494010915231003,50.516038017324604,63.92214962772871,4.884311509885544,4.96404240827285,14295667.0,1441515.625,1712693444608.0,-896.0,0.54935622215271,-16.0,-0.009809932671487331,-15792.0,9.682403564453125,2741.0,3992.0205078125,2429.0,1779.4871826171875,51630.0,1254.385986328125,0.7972028255462646
161260.8218642,1.0,0.5930771291994208,0.14699843771381849,54.67001548496914,94.06704979895719,328.1358909211283,18.546124034200812,10.986962191477812,-22.180182561521256,-42.03056461618376,11.66775243025705,-23.95873537334276,0.10047234617523061,0.26890539844145617,0.9579118927871636,0.25740644604563584,0.18046166307887745,0.9493026438881127,50.516038017324604,63.78803921475453,4.884311509885544,4.953485991345979,14295923.0,1441523.5,1712693444608.0,-880.0,0.5395463109016418,32.0,0.019619865342974663,-15760.0,9.6627836227417,2746.0,3999.302490234375,2432.0,1781.6849365234375,51629.0,1255.0849609375,0.796758770942688
161260.8887444,1.0,0.5929153597190702,0.14668902920623605,54.439694324648556,93.92121994040153,327.27902676150404,18.546124034200812,10.986962191477812,-22.180182561521256,-42.03056461618376,11.66775243025705,-23.95873537334276,0.10008174940893191,0.2692007444900371,0.9578698254988814,0.25740644604563584,0.18046166307887745,0.9493026438881127,50.47498176216502,63.78803921475453,4.880084710221127,4.953485991345979,14296179.0,1441531.25,1712693444608.0,-896.0,0.54935622215271,-16.0,-0.009809932671487331,-15760.0,9.6627836227417,2747.0,4000.759033203125,2446.0,1791.94140625,51629.0,1255.0849609375,0.796758770942688
161260.9559708,1.0,0.592859172130091,0.14595638067325056,54.49998328992194,94.30767943474494,327.77270182686397,18.546124034200812,10.986962191477812,-22.180182561521256,-42.03056461618376,11.66775243025705,-23.95873537334276,0.10008174940893191,0.2692007444900371,0.9578698254988814,0.25719709515414796,0.1818791059320386,0.9490888499343095,50.47498176216502,63.71295221661309,4.880084710221127,4.947165443478394,14296435.0,1441539.0,1712693444608.0,-944.0,0.5787860155105591,-16.0,-0.009809932671487331,-15728.0,9.643163681030273,2747.0,4000.759033203125,2447.0,1792.6739501953125,51628.0,1255.7847900390625,0.7963147759437561
161261.0237457,1.0,0.592944442495334,0.14602430204087402,54.62043236614552,94.41296899021609,328.21079923156594,18.546124034200812,10.986962191477812,-22.180182561521256,-42.03056461618376,11.66775243025705,-23.95873537334276,0.10028795268070805,0.2692043752053556,0.957847237777197,0.25719709515414796,0.1818791059320386,0.9490888499343095,50.447552354308,63.71295221661309,4.8773270308689884,4.947165443478394,14296691.0,1441546.875,1712693444608.0,-896.0,0.54935622215271,0.0,0.0,-15728.0,9.643163681030273,2742.0,3993.476806640625,2437.0,1785.3480224609375,51629.0,1255.0849609375,0.796758770942688
161261.0907534,1.0,0.5926267686665015,0.14598984120205893,54.17574857104523,93.95834455657581,326.6172386046092,18.546124034200812,10.986962191477812,-22.180182561521256,-42.03056461618376,11.66775243025705,-23.95873537334276,0.0995190863223727,0.26882507085908774,0.9580339413273241,0.25719709515414796,0.1818791059320386,0.9490888499343095,50.55210133213981,63.71295221661309,4.887681287946032,4.947165443478394,14296947.0,1441554.75,1712693444608.0,-832.0,0.5101165175437927,32.0,0.019619865342974663,-15840.0,9.711833000183105,2745.0,3997.84619140625,2438.0,1786.08056640625,51630.0,1254.385986328125,0.7972028255462646
161261.1578227,1.0,0.5927047266000676,0.14667435109807359,54.09602264696787,93.53312919485994,325.92744787563254,18.546124034200812,10.986962191477812,-22.180182561521256,-42.03056461618376,11.66775243025705,-23.95873537334276,0.0995190863223727,0.26882507085908774,0.9580339413273241,0.2574929087749531,0.18048995684402278,0.9492738158239993,50.55210133213981,63.8913661136837,4.887681287946032,4.9618063944122435,14297203.0,1441562.5,1712693444608.0,-896.0,0.54935622215271,0.0,0.0,-15808.0,9.69221305847168,2747.0,4000.759033203125,2446.0,1791.94140625,51628.0,1255.7847900390625,0.7963147759437561
161261.2247361,1.0,0.5929957640979671,0.14653064078744082,54.50006717528929,93.99796149000986,327.35441662376854,18.546124034200812,10.986962191477812,-22.180182561521256,-42.03056461618376,11.66775243025705,-23.95873537334276,0.10022404452577971,0.269465523113421,0.9577804929899673,0.2574929087749531,0.18048995684402278,0.9492738158239993,50.36038071700389,63.8913661136837,4.868646929238835,4.9618063944122435,14297459.0,1441570.25,1712693444608.0,-880.0,0.5395463109016418,-16.0,-0.009809932671487331,-15744.0,9.652973175048828,2748.0,4002.21533203125,2447.0,1792.6739501953125,51629.0,1255.0849609375,0.796758770942688
161261.2918395,1.0,0.5930708889750388,0.14621834942899703,54.43097451436499,93.90436771134394,326.65789323353505,18.546124034200812,10.986962191477812,-22.180182561521256,-42.03056461618376,11.66775243025705,-23.95873537334276,0.10022404452577971,0.269465523113421,0.9577804929899673,0.2577933923686525,0.18084085126965202,0.9491254676612199,50.36038071700389,63.87856488903674,4.868646929238835,4.960361884670433,14297715.0,1441578.125,1712693444608.0,-832.0,0.5101165175437927,32.0,0.019619865342974663,-15680.0,9.613734245300293,2738.0,3987.6513671875,2424.0,1775.82421875,51629.0,1255.0849609375,0.796758770942688
161261.3589153,1.0,0.5930023440736832,0.1465990797626494,54.339584703024855,93.6936382143966,326.37375784706734,18.546124034200812,10.986962191477812,-22.180182561521256,-42.03056461618376,11.66775243025705,-23.95873537334276,0.10005675248482733,0.26873426723150917,0.9580034133017136,0.2577933923686525,0.18084085126965202,0.9491254676612199,50.41658839782426,63.87856488903674,4.874247923059298,4.960361884670433,14297971.0,1441586.0,1712693444608.0,-832.0,0.5101165175437927,16.0,0.009809932671487331,-15728.0,9.643163681030273,2733.0,3980.369140625,2409.0,1764.835205078125,51630.0,1254.385986328125,0.7972028255462646
161261.4289128,1.0,0.5929517540669186,0.14701521769155068,54.38410968924816,93.68910942034603,326.8477921629063,18.546124034200812,10.986962191477812,-22.180182561521256,-42.03056461618376,11.66775243025705,-23.95873537334276,0.10005675248482733,0.26873426723150917,0.9580034133017136,0.25758776565958663,0.18024675269402476,0.9492942911056408,50.41658839782426,63.96323040094885,4.874247923059298,4.966893257055281,14298227.0,1441593.75,1712693444608.0,-864.0,0.529736340045929,48.0,0.02942979708313942,-15712.0,9.633354187011719,2732.0,3978.912841796875,2389.0,1750.18310546875,51628.0,1255.7847900390625,0.7963147759437561
161261.4956525,1.0,0.5932335738581203,0.14652892985405208,54.77375421390079,94.24288580569367,328.18501620435745,18.546124034200812,10.986962191477812,-22.180182561521256,-42.03056461618376,11.66775243025705,-23.95873537334276,0.10074077187509432,0.26993525831558457,0.9575939918358451,0.25758776565958663,0.18024675269402476,0.9492942911056408,50.26572089762333,63.96323040094885,4.859375201188311,4.966893257055281,14298483.0,1441601.5,1712693444608.0,-864.0,0.529736340045929,80.0,0.04904966428875923,-15696.0,9.623543739318848,2748.0,4002.21533203125,2423.0,1775.091552734375,51629.0,1255.0849609375,0.796758770942688
161261.5625524,1.0,0.593293118713792,0.14663610914660408,54.71530922256221,94.05211543358993,327.6409361129523,18.546124034200812,10.986962191477812,-22.180182561521256,-42.03056461618376,11.66775243025705,-23.95873537334276,0.10074077187509432,0.26993525831558457,0.9575939918358451,0.2578201041162118,0.1799082537638492,0.9492954303804207,50.26572089762333,63.83807265440062,4.859375201188311,4.95717567921853,14298739.0,1441609.375,1712693444608.0,-896.0,0.54935622215271,48.0,0.02942979708313942,-15712.0,9.633354187011719,2736.0,3984.738525390625,2403.0,1760.4395751953125,51628.0,1255.7847900390625,0.7963147759437561
161261.6303686,1.0,0.5929243871857632,0.146312804317274,54.19661994134691,93.60999411199631,325.7560401038821,18.546124034200812,10.986962191477812,-22.180182561521256,-42.03056461618376,11.66775243025705,-23.95873537334276,0.09984916166269436,0.2699690623154178,0.9576778426526277,0.2578201041162118,0.1799082537638492,0.9492954303804207,50.39212746700778,63.83807265440062,4.871951554478586,4.95717567921853,14298995.0,1441617.25,1712693444608.0,-896.0,0.54935622215271,48.0,0.02942979708313942,-15712.0,9.633354187011719,2742.0,3993.476806640625,2420.0,1772.893798828125,51629.0,1255.0849609375,0.796758770942688
161261.6977165,1.0,0.5928790783642658,0.14634421193920655,54.23923450073545,93.71701020752364,326.16883827818947,18.546124034200812,10.986962191477812,-22.180182561521256,-42.03056461618376,11.66775243025705,-23.95873537334276,0.09984916166269436,0.2699690623154178,0.9576778426526277,0.25764146879857824,0.17996947339695926,0.9493323244262424,50.39212746700778,63.896519753533916,4.871951554478586,4.961329618980179,14299251.0,1441625.0,1712693444608.0,-912.0,0.5591661334037781,32.0,0.019619865342974663,-15792.0,9.682403564453125,2737.0,3986.19482421875,2408.0,1764.1025390625,51628.0,1255.7847900390625,0.7963147759437561
161261.7654614,1.0,0.5926873529720703,0.14756007706577823,54.41133876411482,93.81844244569619,327.9600482501628,18.546124034200812,10.986962191477812,-22.180182561521256,-42.03056461618376,11.66775243025705,-23.95873537334276,0.09984916166269436,0.2699690623154178,0.9576778426526277,0.25686720618928466,0.17834549548380152,0.949848473507827,50.39212746700778,63.867021559274754,4.871951554478586,4.958645327779474,14299507.0,1441632.75,1712693444608.0,-880.0,0.5395463109016418,0.0,0.0,-15744.0,9.652973175048828,2718.0,3958.523193359375,2366.0,1733.3333740234375,51629.0,1255.0849609375,0.796758770942688
161261.8333185,1.0,0.5926555753840786,0.1470695054914889,54.36126207748312,93.91552583424857,327.72649421596816,18.546124034200812,10.986962191477812,-22.180182561521256,-42.03056461618376,11.66775243025705,-23.95873537334276,0.09977378355215773,0.270745726912087,0.9574664189800773,0.25686720618928466,0.17834549548380152,0.949848473507827,50.301717710178,63.867021559274754,4.862998403757604,4.958645327779474,14299763.0,1441640.625,1712693444608.0,-896.0,0.54935622215271,0.0,0.0,-15744.0,9.652973175048828,2734.0,3981.82568359375,2375.0,1739.9267578125,51628.0,1255.7847900390625,0.7963147759437561
161261.9007183,1.0,0.5873128445101153,0.17107134509397526,47.767319512588756,80.31693305658965,306.731739744623,nan,nan,nan,-250.17150082027337,-97.04655112039164,-53.51075333367042,nan,nan,nan,0.5958776406657242,0.3547269683539626,0.7204849861565867,nan,63.867021559274754,nan,4.958645327779474,14300019.0,1441648.5,1712693444608.0,-848.0,0.5199264287948608,16.0,0.009809932671487331,-15776.0,9.672593116760254,2736.0,3984.738525390625,2389.0,1750.18310546875,51628.0,1255.7847900390625,0.7963147759437561
161261.9678053,1.0,0.5926703832684488,0.14704532916072932,54.21680265808105,93.65934228774563,326.80301864635805,18.546124034200812,10.986962191477812,-22.180182561521256,-42.03056461618376,11.66775243025705,-23.95873537334276,0.09964145068061778,0.2708298408364445,0.9574564108191913,0.25713988351387634,0.17804390838121767,0.9498312729084102,50.323551720298745,63.86307125845326,4.865171012205395,4.958626734021073,14300275.0,1441656.25,1712693444608.0,-864.0,0.529736340045929,48.0,0.02942979708313942,-15808.0,9.69221305847168,2744.0,3996.3896484375,2406.0,1762.6373291015625,51628.0,1255.7847900390625,0.7963147759437561
161262.0350442,1.0,0.592478705582027,0.14684632439866652,53.94843107438939,93.43987107250416,325.8216381887969,18.546124034200812,10.986962191477812,-22.180182561521256,-42.03056461618376,11.66775243025705,-23.95873537334276,0.09917836841943692,0.2708994449078033,0.9574847998721978,0.25713988351387634,0.17804390838121767,0.9498312729084102,50.30371032983094,63.86307125845326,4.863366833432544,4.958626734021073,14300531.0,1441664.0,1712693444608.0,-816.0,0.5003065466880798,80.0,0.04904966428875923,-15776.0,9.672593116760254,2746.0,3999.302490234375,2427.0,1778.02197265625,51628.0,1255.7847900390625,0.7963147759437561
161262.1027387,1.0,0.592454655751643,0.1469448952847935,53.97019325635381,93.4699275811519,326.0432856114468,18.546124034200812,10.986962191477812,-22.180182561521256,-42.03056461618376,11.66775243025705,-23.95873537334276,0.09917836841943692,0.2708994449078033,0.9574847998721978,0.25704361948265236,0.17793401680528947,0.9498779202333278,50.30371032983094,63.75058840989849,4.863366833432544,4.949835225604502,14300787.0,1441671.875,1712693444608.0,-864.0,0.529736340045929,80.0,0.04904966428875923,-15808.0,9.69221305847168,2735.0,3983.281982421875,2413.0,1767.765625,51629.0,1255.0849609375,0.796758770942688
161262.1699028,1.0,0.5925107482897247,0.14657098940116942,54.043710230665795,93.65981444051224,326.2648990932017,18.546124034200812,10.986962191477812,-22.180182561521256,-42.03056461618376,11.66775243025705,-23.95873537334276,0.09931517207135275,0.2716012880390019,0.9572717675414817,0.25704361948265236,0.17793401680528947,0.9498779202333278,50.218780452823125,63.75058840989849,4.8549689838908225,4.949835225604502,14301043.0,1441679.75,1712693444608.0,-880.0,0.5395463109016418,96.0,0.05885959416627884,-15712.0,9.633354187011719,2745.0,3997.84619140625,2428.0,1778.754638671875,51628.0,1255.7847900390625,0.7963147759437561
161262.2378544,1.0,0.5923870880549329,0.1471939608266436,54.15541088847067,93.77784143626698,327.4144613810088,18.546124034200812,10.986962191477812,-22.180182561521256,-42.03056461618376,11.66775243025705,-23.95873537334276,0.09931517207135275,0.2716012880390019,0.9572717675414817,0.25654640284035723,0.17716691048227987,0.9501556867270947,50.218780452823125,63.7074778586389,4.8549689838908225,4.946065284171818,14301299.0,1441687.5,1712693444608.0,-880.0,0.5395463109016418,48.0,0.02942979708313942,-15760.0,9.6627836227417,2746.0,3999.302490234375,2436.0,1784.6153564453125,51629.0,1255.0849609375,0.796758770942688
161262.3058144,1.0,0.5923271060417135,0.14668621003563498,54.066053876332404,93.83863585820993,327.03787728443916,18.546124034200812,10.986962191477812,-22.180182561521256,-42.03056461618376,11.66775243025705,-23.95873537334276,0.09917154524187091,0.27236747087950386,0.9570689449674157,0.25654640284035723,0.17716691048227987,0.9501556867270947,50.20063332223612,63.7074778586389,4.853220032806365,4.946065284171818,14301555.0,1441695.25,1712693444608.0,-848.0,0.5199264287948608,96.0,0.05885959416627884,-15728.0,9.643163681030273,2740.0,3990.564208984375,2422.0,1774.3590087890625,51628.0,1255.7847900390625,0.7963147759437561
161262.3727641,1.0,0.5923720420055615,0.14679476910143785,54.022711058932046,93.68657967802577,326.6307637771141,18.546124034200812,10.986962191477812,-22.180182561521256,-42.03056461618376,11.66775243025705,-23.95873537334276,0.09917154524187091,0.27236747087950386,0.9570689449674157,0.25672133629694766,0.17686321914870626,0.9501650157747685,50.20063332223612,63.61084487997746,4.853220032806365,4.938196411432407,14301811.0,1441703.125,1712693444608.0,-848.0,0.5199264287948608,16.0,0.009809932671487331,-15728.0,9.643163681030273,2736.0,3984.738525390625,2410.0,1765.5677490234375,51630.0,1254.385986328125,0.7972028255462646
161262.4397305,1.0,0.5921991174567427,0.14717793076292507,54.18335599312228,94.01184556074219,328.228593014292,18.546124034200812,10.986962191477812,-22.180182561521256,-42.03056461618376,11.66775243025705,-23.95873537334276,0.09917154524187091,0.27236747087950386,0.9570689449674157,0.2560340170512532,0.1766390048227874,0.95039215279158,50.20063332223612,63.67683220262567,4.853220032806365,4.943358758473676,14302067.0,1441711.0,1712693444608.0,-848.0,0.5199264287948608,32.0,0.019619865342974663,-15696.0,9.623543739318848,2741.0,3992.0205078125,2414.0,1768.4981689453125,51628.0,1255.7847900390625,0.7963147759437561
161262.5068326,1.0,0.5921014768157453,0.14723039957708417,54.04778278790525,93.85410597095468,327.7476162997796,18.546124034200812,10.986962191477812,-22.180182561521256,-42.03056461618376,11.66775243025705,-23.95873537334276,0.0989353046066507,0.2721460116270927,0.9571563894462888,0.2560340170512532,0.1766390048227874,0.95039215279158,50.18848476813049,63.67683220262567,4.852244044650253,4.943358758473676,14302323.0,1441718.75,1712693444608.0,-864.0,0.529736340045929,16.0,0.009809932671487331,-15680.0,9.613734245300293,2745.0,3997.84619140625,2432.0,1781.6849365234375,51629.0,1255.0849609375,0.796758770942688
161262.5744781,1.0,0.5920182934876598,0.146811184295371,53.9272399184442,93.85530767508435,327.26810683896014,18.546124034200812,10.986962191477812,-22.180182561521256,-42.03056461618376,11.66775243025705,-23.95873537334276,0.09873534427422899,0.27273241641076557,0.9570101153226094,0.2560340170512532,0.1766390048227874,0.95039215279158,50.21267425240809,63.67683220262567,4.854605803042414,4.943358758473676,14302579.0,1441726.5,1712693444608.0,-928.0,0.568976104259491,48.0,0.02942979708313942,-15776.0,9.672593116760254,2744.0,3996.3896484375,2426.0,1777.2894287109375,51628.0,1255.7847900390625,0.7963147759437561
161262.6419758,1.0,0.5917376563600841,0.14707224607312253,54.19164364269136,94.50584089352071,329.8678644134447,18.546124034200812,10.986962191477812,-22.180182561521256,-42.03056461618376,11.66775243025705,-23.95873537334276,0.09873534427422899,0.27273241641076557,0.9570101153226094,0.2549234515104834,0.17690291998376104,0.9506415679798571,50.21267425240809,63.42589977603271,4.854605803042414,4.923503143556795,14302835.0,1441734.375,1712693444608.0,-848.0,0.5199264287948608,80.0,0.04904966428875923,-15824.0,9.70202350616455,2736.0,3984.738525390625,2414.0,1768.4981689453125,51630.0,1254.385986328125,0.7972028255462646
161262.7090062,1.0,0.5915073187545378,0.14665573754175731,53.864820088437114,94.28933518414641,328.6422315845102,18.546124034200812,10.986962191477812,-22.180182561521256,-42.03056461618376,11.66775243025705,-23.95873537334276,0.09817976686089389,0.27311298603257306,0.9569587400925454,0.2549234515104834,0.17690291998376104,0.9506415679798571,50.16454383900382,63.42589977603271,4.849831580869603,4.923503143556795,14303091.0,1441742.25,1712693444608.0,-864.0,0.529736340045929,0.0,0.0,-15792.0,9.682403564453125,2747.0,4000.759033203125,2430.0,1780.2197265625,51628.0,1255.7847900390625,0.7963147759437561
161262.7767934,1.0,0.5913789068985662,0.14682246820759293,53.985243042839315,94.57310705189555,329.838495149554,18.546124034200812,10.986962191477812,-22.180182561521256,-42.03056461618376,11.66775243025705,-23.95873537334276,0.09817976686089389,0.27311298603257306,0.9569587400925454,0.2544138929308838,0.1769416518568669,0.9507708572110929,50.16454383900382,63.5499967419739,4.849831580869603,4.933566199567998,14303347.0,1441750.0,1712693444608.0,-880.0,0.5395463109016418,0.0,0.0,-15696.0,9.623543739318848,2736.0,3984.738525390625,2416.0,1769.96337890625,51629.0,1255.0849609375,0.796758770942688
161262.8438487,1.0,0.5908313503165632,0.14673246364477466,53.22466213096081,93.79895654194277,327.0790843951635,18.546124034200812,10.986962191477812,-22.180182561521256,-42.03056461618376,11.66775243025705,-23.95873537334276,0.09685744974529642,0.2725140522584688,0.9572641880643535,0.2544138929308838,0.1769416518568669,0.9507708572110929,50.08546720999569,63.5499967419739,4.842126016710019,4.933566199567998,14303603.0,1441757.75,1712693444608.0,-816.0,0.5003065466880798,16.0,0.009809932671487331,-15760.0,9.6627836227417,2745.0,3997.84619140625,2424.0,1775.82421875,51628.0,1255.7847900390625,0.7963147759437561
161262.9108082,1.0,0.5904128750886841,0.14669009585903625,53.616455317379675,94.91522842646519,330.95664116279625,18.546124034200812,10.986962191477812,-22.180182561521256,-42.03056461618376,11.66775243025705,-23.95873537334276,0.09685744974529642,0.2725140522584688,0.9572641880643535,0.25276060211168905,0.17808794109190562,0.9509977724778236,50.08546720999569,63.34237344831425,4.842126016710019,4.916482171570262,14303859.0,1441765.625,1712693444608.0,-928.0,0.568976104259491,112.0,0.06866952776908875,-15712.0,9.633354187011719,2736.0,3984.738525390625,2412.0,1767.032958984375,51629.0,1255.0849609375,0.796758770942688
161262.9778375,1.0,0.590603718387056,0.1463245455116946,53.87948354366823,95.30682214241179,331.8727508172283,18.546124034200812,10.986962191477812,-22.180182561521256,-42.03056461618376,11.66775243025705,-23.95873537334276,0.09731931288323005,0.27338636281722495,0.95696857208871,0.25276060211168905,0.17808794109190562,0.9509977724778236,50.07400483297601,63.34237344831425,4.840908480378739,4.916482171570262,14304115.0,1441773.5,1712693444608.0,-864.0,0.529736340045929,32.0,0.019619865342974663,-15776.0,9.672593116760254,2742.0,3993.476806640625,2415.0,1769.230712890625,51628.0,1255.7847900390625,0.7963147759437561
161263.04476,1.0,0.5904670002096974,0.14593753304885726,54.01409592523294,95.80384137211672,333.15503666584533,18.546124034200812,10.986962191477812,-22.180182561521256,-42.03056461618376,11.66775243025705,-23.95873537334276,0.09731931288323005,0.27338636281722495,0.95696857208871,0.2522256460623277,0.1791127001433926,0.9509473508642761,50.07400483297601,63.20063192178289,4.840908480378739,4.905447894647342,14304371.0,1441781.25,1712693444608.0,-816.0,0.5003065466880798,0.0,0.0,-15728.0,9.643163681030273,2738.0,3987.6513671875,2414.0,1768.4981689453125,51628.0,1255.7847900390625,0.7963147759437561
161263.111755,1.0,0.5900691323986267,0.1454010581016244,53.44970480055045,95.3667001311766,331.0353689638656,18.546124034200812,10.986962191477812,-22.180182561521256,-42.03056461618376,11.66775243025705,-23.95873537334276,0.09636030619898847,0.2737390012389407,0.956964811573521,0.2522256460623277,0.1791127001433926,0.9509473508642761,50.05118937788198,63.20063192178289,4.838662900267553,4.905447894647342,14304627.0,1441789.0,1712693444608.0,-848.0,0.5199264287948608,32.0,0.019619865342974663,-15760.0,9.6627836227417,2719.0,3959.9794921875,2369.0,1735.5311279296875,51629.0,1255.0849609375,0.796758770942688
161263.1789166,1.0,0.5899501707666286,0.1458300887075491,53.55850108604649,95.54434508895633,332.1688965871058,18.546124034200812,10.986962191477812,-22.180182561521256,-42.03056461618376,11.66775243025705,-23.95873537334276,0.09636030619898847,0.2737390012389407,0.956964811573521,0.2517472504379638,0.17867130391940836,0.9511571305797288,50.05118937788198,63.32665862446812,4.838662900267553,4.916004661242051,14304883.0,1441796.875,1712693444608.0,-896.0,0.54935622215271,32.0,0.019619865342974663,-15728.0,9.643163681030273,2735.0,3983.281982421875,2388.0,1749.4505615234375,51628.0,1255.7847900390625,0.7963147759437561
161263.2466699,1.0,0.5899054113040743,0.1457790736859389,53.49529526632439,95.49250002750807,331.93207977244066,18.546124034200812,10.986962191477812,-22.180182561521256,-42.03056461618376,11.66775243025705,-23.95873537334276,0.09625243313785227,0.27376309327131754,0.9569687758111877,0.2517472504379638,0.17867130391940836,0.9511571305797288,50.068545397732684,63.32665862446812,4.8404032311631155,4.916004661242051,14305139.0,1441804.75,1712693444608.0,-896.0,0.54935622215271,64.0,0.039239730685949326,-15712.0,9.633354187011719,2744.0,3996.3896484375,2409.0,1764.835205078125,51629.0,1255.0849609375,0.796758770942688
161263.314539,1.0,0.5897254950304103,0.14508959593729598,53.672592822399594,96.20903947576994,333.6184871564482,18.546124034200812,10.986962191477812,-22.180182561521256,-42.03056461618376,11.66775243025705,-23.95873537334276,0.09625243313785227,0.27376309327131754,0.9569687758111877,0.251044777603257,0.18033460896481687,0.9510288893864569,50.068545397732684,63.066895474670076,4.8404032311631155,4.895315064875318,14305395.0,1441812.5,1712693444608.0,-896.0,0.54935622215271,64.0,0.039239730685949326,-15712.0,9.633354187011719,2732.0,3978.912841796875,2392.0,1752.3809814453125,51629.0,1255.0849609375,0.796758770942688
161263.3817938,1.0,0.5898633417162383,0.1451324909017223,53.86752737528512,96.40517006914024,334.33797174745814,18.546124034200812,10.986962191477812,-22.180182561521256,-42.03056461618376,11.66775243025705,-23.95873537334276,0.09658501059574433,0.2738800003556343,0.9569018137371346,0.251044777603257,0.18033460896481687,0.9510288893864569,50.101545155242945,63.066895474670076,4.843621644195231,4.895315064875318,14305651.0,1441820.25,1712693444608.0,-896.0,0.54935622215271,16.0,0.009809932671487331,-15792.0,9.682403564453125,2746.0,3999.302490234375,2420.0,1772.893798828125,51629.0,1255.0849609375,0.796758770942688
161263.448681,1.0,0.5898932796504818,0.14481108208344118,53.84156386069516,96.43065382789308,334.0420936584999,18.546124034200812,10.986962191477812,-22.180182561521256,-42.03056461618376,11.66775243025705,-23.95873537334276,0.09658501059574433,0.2738800003556343,0.9569018137371346,0.25116869802234576,0.18081750868593055,0.950904471377842,50.101545155242945,63.24084653540175,4.843621644195231,4.909539638070975,14305907.0,1441828.125,1712693444608.0,-912.0,0.5591661334037781,48.0,0.02942979708313942,-15760.0,9.6627836227417,2735.0,3983.281982421875,2409.0,1764.835205078125,51628.0,1255.7847900390625,0.7963147759437561
161263.5158096,1.0,0.5822204046179851,0.16685976383978796,45.31954214834619,81.85307767479964,307.98608806644495,nan,nan,nan,-250.17150082027337,-97.04655112039164,-53.51075333367042,nan,nan,nan,0.5909820859372391,0.3577992575903825,0.7229936828002308,nan,63.24084653540175,nan,4.909539638070975,14306163.0,1441836.0,1712693444608.0,-896.0,0.54935622215271,64.0,0.039239730685949326,-15776.0,9.672593116760254,2745.0,3997.84619140625,2429.0,1779.4871826171875,51629.0,1255.0849609375,0.796758770942688
161263.5828849,1.0,0.5897901689836207,0.14418239590410187,53.90031184832307,96.84073337653568,334.7237291640863,18.546124034200812,10.986962191477812,-22.180182561521256,-42.03056461618376,11.66775243025705,-23.95873537334276,0.09653643523380823,0.2737483633223026,0.956944382004884,0.2508497399681261,0.18223502378996978,0.9507180465638551,50.20912792653717,63.134973065041095,4.854239705254333,4.901006029019131,14306419.0,1441843.75,1712693444608.0,-896.0,0.54935622215271,64.0,0.039239730685949326,-15744.0,9.652973175048828,2740.0,3990.564208984375,2416.0,1769.96337890625,51627.0,1256.4853515625,0.7958707809448242
161263.6508099,1.0,0.5896129239305027,0.14566316946568447,54.047206529358,96.81163137599492,336.4032798354573,18.546124034200812,10.986962191477812,-22.180182561521256,-42.03051263465463,11.671224023276196,-24.013994817602857,0.09653643523380823,0.2737483633223026,0.956944382004884,0.2500962506711459,0.1800526069027314,0.9513321839125206,50.20912792653717,63.130499305271826,4.854239705254333,4.912466794516833,14306675.0,1441851.5,1712693444608.0,-896.0,0.54935622215271,32.0,0.019619865342974663,-15712.0,9.633354187011719,2745.0,3997.84619140625,2432.0,1781.6849365234375,51629.0,1255.0849609375,0.796758770942688
161263.7178356,1.0,0.5890683690104825,0.14503145746900226,53.270824473284776,96.17116024348977,333.47316442967434,18.546124034200812,10.986962191477812,-22.180182561521256,-42.03051263465463,11.671224023276196,-24.013994817602857,0.09522433584953406,0.2740601328409983,0.9569866088139319,0.2500962506711459,0.1800526069027314,0.9513321839125206,50.17959315907175,63.130499305271826,4.851237145686593,4.912466794516833,14306931.0,1441859.375,1712693444608.0,-832.0,0.5101165175437927,0.0,0.0,-15824.0,9.70202350616455,2736.0,3984.738525390625,2407.0,1763.3699951171875,51628.0,1255.7847900390625,0.7963147759437561
161263.7857992,1.0,0.5889828199639162,0.1448054862452437,53.35404180005891,96.48054397445884,334.2846142649969,18.546124034200812,10.986962191477812,-22.180182561521256,-42.03051263465463,11.671224023276196,-24.013994817602857,0.09522433584953406,0.2740601328409983,0.9569866088139319,0.24975983107800326,0.18066673462356556,0.9513041352692342,50.17959315907175,63.18421032601021,4.851237145686593,4.917050827963771,14307187.0,1441867.25,1712693444608.0,-832.0,0.5101165175437927,32.0,0.019619865342974663,-15776.0,9.672593116760254,2744.0,3996.3896484375,2423.0,1775.091552734375,51629.0,1255.0849609375,0.796758770942688
161263.8528233,1.0,0.5891639894047105,0.14518451482153094,53.613642069884804,96.64340326991493,335.2850279570992,18.546124034200812,10.986962191477812,-22.180182561521256,-42.03051263465463,11.671224023276196,-24.013994817602857,0.09566019879793224,0.27367382978770494,0.9570536877601332,0.24975983107800326,0.18066673462356556,0.9513041352692342,50.2501278363853,63.18421032601021,4.858220765017776,4.917050827963771,14307443.0,1441875.0,1712693444608.0,-848.0,0.5199264287948608,32.0,0.019619865342974663,-15696.0,9.623543739318848,2741.0,3992.0205078125,2418.0,1771.4285888671875,51628.0,1255.7847900390625,0.7963147759437561
161263.9206785,1.0,0.5889189388846118,0.14540681458007565,53.84863405829871,97.24761489503044,337.66872608512404,18.546124034200812,10.986962191477812,-22.180182561521256,-42.03051263465463,11.671224023276196,-24.013994817602857,0.09566019879793224,0.27367382978770494,0.9570536877601332,0.24878166031296517,0.18091046655397158,0.9515141031971879,50.2501278363853,63.143422465897515,4.858220765017776,4.913532915408718,14307699.0,1441882.75,1712693444608.0,-864.0,0.529736340045929,0.0,0.0,-15792.0,9.682403564453125,2745.0,3997.84619140625,2434.0,1783.150146484375,51628.0,1255.7847900390625,0.7963147759437561
161263.9878043,0.9999600350856781,0.5886867784771113,0.14521851473614134,53.51671181977695,96.94680556544391,336.4183165374192,18.546124034200812,10.986962191477812,-22.180182561521256,-42.03051263465463,11.671224023276196,-24.013994817602857,0.09510075128941609,0.273671517269903,0.9571101022031778,0.24878166031296517,0.18091046655397158,0.9515141031971879,50.063287520839815,63.143422465897515,4.839777487160622,4.913532915408718,14307955.0,1441890.625,1712693444608.0,-864.0,0.529736340045929,0.0,0.0,-15744.0,9.652973175048828,2743.0,3994.933349609375,2431.0,1780.952392578125,51628.0,1255.7847900390625,0.7963147759437561
161264.0547371,0.9999600350856781,0.588871282621775,0.14432584328755937,53.3484523330422,96.73727411976816,334.6133224301076,18.546124034200812,10.986962191477812,-22.180182561521256,-42.03051263465463,11.671224023276196,-24.013994817602857,0.09510075128941609,0.273671517269903,0.9571101022031778,0.2495293270231446,0.18199069109013633,0.9511122453800661,50.063287520839815,63.048833062014566,4.839777487160622,4.906508427887543,14308211.0,1441898.5,1712693444608.0,-896.0,0.54935622215271,16.0,0.009809932671487331,-15792.0,9.682403564453125,2747.0,4000.759033203125,2446.0,1791.94140625,51629.0,1255.0849609375,0.796758770942688
161264.1217157,1.0,0.5891777606874322,0.14398212102759123,53.77721709224669,97.30893791233377,336.1550489595296,18.546124034200812,10.986962191477812,-22.180182561521256,-42.03051263465463,11.671224023276196,-24.013994817602857,0.09584123802742381,0.274666524207156,0.9567511471502558,0.2495293270231446,0.18199069109013633,0.9511122453800661,50.0810272908596,63.048833062014566,4.841354643174332,4.906508427887543,14308467.0,1441906.25,1712693444608.0,-928.0,0.568976104259491,16.0,0.009809932671487331,-15792.0,9.682403564453125,2747.0,4000.759033203125,2447.0,1792.6739501953125,51628.0,1255.7847900390625,0.7963147759437561
161264.1889609,1.0,0.5889680107830196,0.14425034099837153,53.97897555240127,97.80464301815285,338.2066019071587,18.546124034200812,10.986962191477812,-22.180182561521256,-42.03051263465463,11.671224023276196,-24.013994817602857,0.09584123802742381,0.274666524207156,0.9567511471502558,0.24869052517151483,0.1820641222547854,0.9513178638486248,50.0810272908596,63.0353718423045,4.841354643174332,4.905017604796746,14308723.0,1441914.0,1712693444608.0,-912.0,0.5591661334037781,64.0,0.039239730685949326,-15728.0,9.643163681030273,2739.0,3989.107666015625,2434.0,1783.150146484375,51628.0,1255.7847900390625,0.7963147759437561
161264.2567565,1.0,0.5887386007449977,0.14464288738433662,53.65674783027122,97.33166010212814,337.0594166006285,18.546124034200812,10.986962191477812,-22.180182561521256,-42.03051263465463,11.671224023276196,-24.013994817602857,0.09528651407452804,0.2736952546980553,0.9570848383457401,0.24869052517151483,0.1820641222547854,0.9513178638486248,50.032873234839094,63.0353718423045,4.8368108711004245,4.905017604796746,14308979.0,1441921.875,1712693444608.0,-912.0,0.5591661334037781,80.0,0.04904966428875923,-15696.0,9.623543739318848,2737.0,3986.19482421875,2419.0,1772.1611328125,51628.0,1255.7847900390625,0.7963147759437561
161264.3237238,1.0,0.5888082513753409,0.14431095889598788,53.59260490990563,97.24974626174426,336.3734851414796,18.546124034200812,10.986962191477812,-22.180182561521256,-42.03051263465463,11.671224023276196,-24.013994817602857,0.09528651407452804,0.2736952546980553,0.9570848383457401,0.24897279321425697,0.18246312721203925,0.9511675748505591,50.032873234839094,62.909865787088386,4.8368108711004245,4.895220146324102,14309235.0,1441929.75,1712693444608.0,-832.0,0.5101165175437927,48.0,0.02942979708313942,-15776.0,9.672593116760254,2745.0,3997.84619140625,2430.0,1780.2197265625,51628.0,1255.7847900390625,0.7963147759437561
161264.3906851,1.0,0.5892345635460166,0.14526165606546804,54.211872570217956,97.62406161942917,338.77416225598245,18.546124034200812,10.986962191477812,-22.180182561521256,-42.03051263465463,11.671224023276196,-24.013994817602857,0.09631213855644194,0.27268686780644186,0.9572699953997288,0.24897279321425697,0.18246312721203925,0.9511675748505591,50.34409841709688,62.909865787088386,4.867596302341567,4.895220146324102,14309491.0,1441937.5,1712693444608.0,-912.0,0.5591661334037781,32.0,0.019619865342974663,-15792.0,9.682403564453125,2747.0,4000.759033203125,2443.0,1789.7435302734375,51628.0,1255.7847900390625,0.7963147759437561
161264.4575724,1.0,0.5894290653495015,0.14510219431633886,54.022417843230265,97.13459924607568,336.86816515484617,18.546124034200812,10.986962191477812,-22.180182561521256,-42.03051263465463,11.671224023276196,-24.013994817602857,0.09631213855644194,0.27268686780644186,0.9572699953997288,0.2497490048874908,0.18224013920381332,0.9510068171262931,50.34409841709688,63.03589406991871,4.867596302341567,4.9062236457439425,14309747.0,1441945.25,1712693444608.0,-880.0,0.5395463109016418,48.0,0.02942979708313942,-15728.0,9.643163681030273,2745.0,3997.84619140625,2440.0,1787.5457763671875,51627.0,1256.4853515625,0.7958707809448242
161264.5247359,1.0,0.5893177431653535,0.1449742418132991,53.86246001978382,97.00169919707673,336.2636961518211,18.546124034200812,10.986962191477812,-22.180182561521256,-42.03051263465463,11.671224023276196,-24.013994817602857,0.09604384303684542,0.2727486431369377,0.9572793520606581,0.2497490048874908,0.18224013920381332,0.9510068171262931,50.23354043205857,63.03589406991871,4.856562676554801,4.9062236457439425,14310003.0,1441953.125,1712693444608.0,-784.0,0.4806866943836212,48.0,0.02942979708313942,-15696.0,9.623543739318848,2743.0,3994.933349609375,2441.0,1788.2784423828125,51629.0,1255.0849609375,0.796758770942688
161264.5925429,1.0,0.5891536115476852,0.14568780511957302,54.015711474298236,97.21703479611986,337.88050247693513,18.546124034200812,10.986962191477812,-22.180182561521256,-42.03051263465463,11.671224023276196,-24.013994817602857,0.09604384303684542,0.2727486431369377,0.9572793520606581,0.24908542491931146,0.18141905367751984,0.9513377833637846,50.23354043205857,63.17407549963732,4.856562676554801,4.917163918230048,14310259.0,1441961.0,1712693444608.0,-832.0,0.5101165175437927,48.0,0.02942979708313942,-15696.0,9.623543739318848,2747.0,4000.759033203125,2444.0,1790.4761962890625,51628.0,1255.7847900390625,0.7963147759437561
161264.6595657,0.9797521531581879,0.5889484966525917,0.14584186486184003,53.72530030317992,96.85507673038605,336.8244896692694,18.546124034200812,10.986962191477812,-22.180182561521256,-42.03051263465463,11.671224023276196,-24.013994817602857,0.09554834355732428,0.2722100344839261,0.9574822249889088,0.24908542491931146,0.18141905367751984,0.9513377833637846,50.24217489121643,63.17407549963732,4.857407999338345,4.917163918230048,14310515.0,1441968.75,1712693444608.0,-880.0,0.5395463109016418,48.0,0.02942979708313942,-15744.0,9.652973175048828,2730.0,3976.0,2411.0,1766.3004150390625,51629.0,1255.0849609375,0.796758770942688
161264.7273603,0.9797521531581879,0.588742032409809,0.14558959243852398,53.92882030700943,97.5164088386437,338.83728317351097,18.546124034200812,10.986962191477812,-22.180182561521256,-42.03051263465463,11.671224023276196,-24.013994817602857,0.09554834355732428,0.2722100344839261,0.9574822249889088,0.24826696880023166,0.18239053646421818,0.9513659676544245,50.24217489121643,62.931490829464614,4.857407999338345,4.897554128148161,14310771.0,1441976.5,1712693444608.0,-832.0,0.5101165175437927,16.0,0.009809932671487331,-15776.0,9.672593116760254,2745.0,3997.84619140625,2422.0,1774.3590087890625,51627.0,1256.4853515625,0.7958707809448242
161264.7947678,0.9762404561042786,0.5888227347479791,0.1453185916473163,54.041262323448215,97.723559633669,339.222989478032,18.546124034200812,10.986962191477812,-22.180182561521256,-42.03051263465463,11.671224023276196,-24.013994817602857,0.09574399355554021,0.2727744661052312,0.9573020308863043,0.24826696880023166,0.18239053646421818,0.9513659676544245,50.098685379697805,62.931490829464614,4.843182064260022,4.897554128148161,14311027.0,1441984.375,1712693444608.0,-816.0,0.5003065466880798,32.0,0.019619865342974663,-15728.0,9.643163681030273,2737.0,3986.19482421875,2419.0,1772.1611328125,51629.0,1255.0849609375,0.796758770942688
161264.8616394,0.9762404561042786,0.5887232310627911,0.1451147469455356,54.141453317216985,98.07417048051963,340.20180668780586,18.546124034200812,10.986962191477812,-22.180182561521256,-42.03051263465463,11.671224023276196,-24.013994817602857,0.09574399355554021,0.2727744661052312,0.9573020308863043,0.2478733031637216,0.1830025140134215,0.9513510947297393,50.098685379697805,62.97473797345427,4.843182064260022,4.9011573292720385,14311283.0,1441992.25,1712693444608.0,-896.0,0.54935622215271,64.0,0.039239730685949326,-15680.0,9.613734245300293,2731.0,3977.456298828125,2396.0,1755.3114013671875,51627.0,1256.4853515625,0.7958707809448242
161264.9287624,1.0,0.5886326103525713,0.14525151425938954,54.0127430124623,97.89104215488504,339.7393818385211,18.546124034200812,10.986962191477812,-22.180182561521256,-42.03051263465463,11.671224023276196,-24.013994817602857,0.09552485548794724,0.2724212598714451,0.9574244926645973,0.2478733031637216,0.1830025140134215,0.9513510947297393,50.169598850432045,62.97473797345427,4.850249639611592,4.9011573292720385,14311539.0,1442000.0,1712693444608.0,-848.0,0.5199264287948608,80.0,0.04904966428875923,-15648.0,9.594114303588867,2741.0,3992.0205078125,2415.0,1769.230712890625,51628.0,1255.7847900390625,0.7963147759437561
161264.9958818,1.0,0.5883158860666379,0.14581757013811658,54.32206966811852,98.59953153286432,342.9152541470347,18.546124034200812,10.986962191477812,-22.180182561521256,-42.03051263465463,11.671224023276196,-24.013994817602857,0.09552485548794724,0.2724212598714451,0.9574244926645973,0.24660115662957238,0.18283173048488863,0.9517144676198099,50.169598850432045,62.97494766155188,4.850249639611592,4.901261902403214,14311795.0,1442007.75,1712693444608.0,-880.0,0.5395463109016418,80.0,0.04904966428875923,-15664.0,9.603923797607422,2746.0,3999.302490234375,2424.0,1775.82421875,51627.0,1256.4853515625,0.7958707809448242
161265.0627416,1.0,0.587871080925285,0.14545807025215174,53.68260284023545,98.01970379925977,340.50011299066557,18.56058545152991,11.012429523716563,-22.142381071624285,-42.03051263465463,11.671224023276196,-24.013994817602857,0.09442118091688252,0.27238569882370633,0.9575440834084781,0.24660115662957238,0.18283173048488863,0.9517144676198099,50.29915555408582,62.97494766155188,4.855199474024751,4.901261902403214,14312051.0,1442015.625,1712693444608.0,-896.0,0.54935622215271,16.0,0.009809932671487331,-15776.0,9.672593116760254,2738.0,3987.6513671875,2420.0,1772.893798828125,51628.0,1255.7847900390625,0.7963147759437561
161265.130639,1.0,0.5878960702503749,0.14553864050297893,53.657430308495236,97.92143447664381,340.2541886230068,18.56058545152991,11.012429523716563,-22.142381071624285,-42.03051263465463,11.671224023276196,-24.013994817602857,0.09442118091688252,0.27238569882370633,0.9575440834084781,0.24669977174651725,0.18262677962976384,0.9517282605777123,50.29915555408582,63.05639671496717,4.855199474024751,4.908358460746306,14312307.0,1442023.5,1712693444608.0,-960.0,0.5885959267616272,32.0,0.019619865342974663,-15776.0,9.672593116760254,2745.0,3997.84619140625,2427.0,1778.02197265625,51627.0,1256.4853515625,0.7958707809448242
