timestamp,Timestamp RAW (no units)_003,Timestamp CAL (mSecs)_003,System Timestamp CAL (mSecs)_003,Wide Range Accelerometer X RAW (no units)_003,Wide Range Accelerometer X CAL (m/(sec ^2))_003,Wide Range Accelerometer Y RAW (no units)_003,Wide Range Accelerometer Y CAL (m/(sec ^2))_003,Wide Range Accelerometer Z RAW (no units)_003,Wide Range Accelerometer Z CAL (m/(sec ^2))_003,VSenseBatt RAW (no units)_003,VSenseBatt CAL (m Volts)_003,Internal ADC A13 RAW (no units)_003,Internal ADC A13 CAL (m Volts)_003,GSR RAW (no units)_003,GSR CAL (kOhms)_003,GSR Conductance CAL (u Siemens)_003,confidence_002,norm_pos_x_002,norm_pos_y_002,gaze_point_3d_x_002,gaze_point_3d_y_002,gaze_point_3d_z_002,eye_center0_3d_x_002,eye_center0_3d_y_002,eye_center0_3d_z_002,eye_center1_3d_x_002,eye_center1_3d_y_002,eye_center1_3d_z_002,gaze_normal0_x_002,gaze_normal0_y_002,gaze_normal0_z_002,gaze_normal1_x_002,gaze_normal1_y_002,gaze_normal1_z_002,diameter0_2d_002,diameter1_2d_002,diameter0_3d_002,diameter1_3d_002,Timestamp RAW (no units)_002,Timestamp CAL (mSecs)_002,System Timestamp CAL (mSecs)_002,Wide Range Accelerometer X RAW (no units)_002,Wide Range Accelerometer X CAL (m/(sec ^2))_002,Wide Range Accelerometer Y RAW (no units)_002,Wide Range Accelerometer Y CAL (m/(sec ^2))_002,Wide Range Accelerometer Z RAW (no units)_002,Wide Range Accelerometer Z CAL (m/(sec ^2))_002,VSenseBatt RAW (no units)_002,VSenseBatt CAL (m Volts)_002,Internal ADC A13 RAW (no units)_002,Internal ADC A13 CAL (m Volts)_002,GSR RAW (no units)_002,GSR CAL (kOhms)_002,GSR Conductance CAL (u Siemens)_002,confidence_003,norm_pos_x_003,norm_pos_y_003,gaze_point_3d_x_003,gaze_point_3d_y_003,gaze_point_3d_z_003,eye_center0_3d_x_003,eye_center0_3d_y_003,eye_center0_3d_z_003,eye_center1_3d_x_003,eye_center1_3d_y_003,eye_center1_3d_z_003,gaze_normal0_x_003,gaze_normal0_y_003,gaze_normal0_z_003,gaze_normal1_x_003,gaze_normal1_y_003,gaze_normal1_z_003,diameter0_2d_003,diameter1_2d_003,diameter0_3d_003,diameter1_3d_003
101824.0561466,12260476.0,1326968.75,1712429858816.0,-304.0,0.18638871610164642,-112.0,-0.06866952776908875,-17600.0,10.790925979614258,2704.0,3938.13330078125,2293.0,1679.853515625,35964.0,271.5337219238281,3.682783842086792,0.981159508228302,0.52155108599669,0.43384785541510995,29.726164371774182,8.830174134295874,682.3032636054355,20.0699058747679,14.5383549656078,-21.470029679573734,-39.919379293656924,15.442530193866085,-20.065998088865065,0.013761180617580785,-0.005338541290646896,0.9998910590083795,0.09862711695241234,-0.012139188352616053,0.9950504167668064,61.32493150296508,60.924492636201215,4.923687697711009,4.264523313010468,13752577.0,1377507.75,1712429858816.0,-800.0,0.4904966354370117,192.0,0.11771918833255768,-15744.0,9.652973175048828,2707.0,3942.502685546875,2273.0,1665.201416015625,35654.0,309.7345275878906,3.2285714149475098,1.0,0.4006359671279875,0.2223924593731076,-16.914670866839188,22.88978097223615,108.39032027139166,17.773193464551106,15.19139900846561,-22.12696181564301,-39.602714414917344,15.085521323089898,-20.662598404454595,-0.2561763042211156,0.11694228163932184,0.9595301995875898,0.17273144367760593,-0.0007867465230113613,0.9849686438638332,31.874613969917323,35.411198584414514,1.7991455440918784,3.3352040315027773
101824.1235847,12260732.0,1326976.5,1712429858816.0,-256.0,0.1569589227437973,-64.0,-0.039239730685949326,-17536.0,10.751686096191406,2710.0,3946.871826171875,2297.0,1682.783935546875,35965.0,271.42572021484375,3.68424916267395,0.9734029173851013,0.5215037295642633,0.4338448542291976,29.75109297547812,8.854965304804708,684.0768002626608,20.0699058747679,14.5383549656078,-21.470029679573734,-39.919379293656924,15.442530193866085,-20.065998088865065,0.013761180617580785,-0.005338541290646896,0.9998910590083795,0.09841681425820385,-0.012025247491865355,0.9950726225226104,61.32493150296508,60.80793917053098,4.923687697711009,4.256426815750668,13752833.0,1377515.625,1712429858816.0,-800.0,0.4904966354370117,176.0,0.10790925472974777,-15632.0,9.584303855895996,2707.0,3942.502685546875,2275.0,1666.6666259765625,35654.0,309.7345275878906,3.2285714149475098,1.0,0.40098860547021087,0.2230552810771551,-16.879434906111193,22.860876475967366,108.59455403608115,17.773193464551106,15.19139900846561,-22.12696181564301,-39.602714414917344,15.085521323089898,-20.662598404454595,-0.2555676487160717,0.1163412020082555,0.9597655451437151,0.17273144367760593,-0.0007867465230113613,0.9849686438638332,31.854060132070106,35.411198584414514,1.798177781164477,3.3352040315027773
101824.191398,12260988.0,1326984.375,1712429858816.0,-288.0,0.17657878994941711,-80.0,-0.04904966428875923,-17552.0,10.761495590209961,2720.0,3961.435791015625,2315.0,1695.970703125,35964.0,271.5337219238281,3.682783842086792,0.9699093997478485,0.5213064884393064,0.4336508236629958,29.364086920877604,8.92403533041211,680.1606080788422,20.0699058747679,14.5383549656078,-21.470029679573734,-39.919379293656924,15.442530193866085,-20.065998088865065,0.01328703809065852,-0.00523903338454745,0.9998979983718206,0.09841681425820385,-0.012025247491865355,0.9950726225226104,61.15970409110139,60.80793917053098,4.910137614067966,4.256426815750668,13753089.0,1377523.5,1712429858816.0,-784.0,0.4806866943836212,224.0,0.1373390555381775,-15664.0,9.603923797607422,2690.0,3917.74365234375,2238.0,1639.5604248046875,35654.0,309.7345275878906,3.2285714149475098,1.0,0.401048315731442,0.22334819135828576,-16.85072185851199,22.806844058929784,108.48639728655817,17.773193464551106,15.19139900846561,-22.12696181564301,-39.602714414917344,15.085521323089898,-20.662598404454595,-0.2555676487160717,0.1163412020082555,0.9597655451437151,0.1730838990103324,-0.0015033577706916046,0.9849059365334307,31.854060132070106,35.57450307654562,1.798177781164477,3.3508859837966405
101824.2592423,12261244.0,1326992.25,1712429858816.0,-304.0,0.18638871610164642,-64.0,-0.039239730685949326,-17616.0,10.800735473632812,2719.0,3959.9794921875,2328.0,1705.4945068359375,35964.0,271.5337219238281,3.682783842086792,0.9670763611793518,0.521262821747974,0.43354744272787293,29.38753169402803,9.009768558031105,681.8170737646017,20.0699058747679,14.5383549656078,-21.470029679573734,-39.919379293656924,15.442530193866085,-20.065998088865065,0.01328703809065852,-0.00523903338454745,0.9998979983718206,0.09822193359187979,-0.011741309839749683,0.9950952685068497,61.15970409110139,60.90779802931718,4.910137614067966,4.263466303437643,13753345.0,1377531.25,1712429858816.0,-800.0,0.4904966354370117,240.0,0.1471489816904068,-15696.0,9.623543739318848,2699.0,3930.851318359375,2240.0,1641.025634765625,35654.0,309.7345275878906,3.2285714149475098,1.0,0.4017493116376438,0.22402260031240961,-16.78086789152875,22.815224084884015,108.88433215441123,17.773193464551106,15.19139900846561,-22.12696181564301,-39.602714414917344,15.085521323089898,-20.662598404454595,-0.2543649288605615,0.11613553627031661,0.9601099000536175,0.1730838990103324,-0.0015033577706916046,0.9849059365334307,31.867907333962936,35.57450307654562,1.7992524545687911,3.3508859837966405
101824.3270418,12261500.0,1327000.0,1712429858816.0,-240.0,0.1471489816904068,-96.0,-0.05885959416627884,-17584.0,10.781115531921387,2707.0,3942.502685546875,2312.0,1693.77294921875,35965.0,271.42572021484375,3.68424916267395,0.9787590503692627,0.5215808145373775,0.4339401400003844,30.01593277225355,8.848768811082609,688.196245420872,20.0699058747679,14.5383549656078,-21.470029679573734,-39.919379293656924,15.442530193866085,-20.065998088865065,0.014050993363208883,-0.005539182700161626,0.9998859370150784,0.09822193359187979,-0.011741309839749683,0.9950952685068497,61.513487761364864,60.90779802931718,4.9393139701235045,4.263466303437643,13753601.0,1377539.0,1712429858816.0,-768.0,0.4708767533302307,192.0,0.11771918833255768,-15680.0,9.613734245300293,2708.0,3943.958984375,2259.0,1654.945068359375,35654.0,309.7345275878906,3.2285714149475098,1.0,0.401971209585391,0.22375482954457293,-16.684519706005673,22.76577714447193,108.51910674148144,17.773193464551106,15.19139900846561,-22.12696181564301,-39.602714414917344,15.085521323089898,-20.662598404454595,-0.2543649288605615,0.11613553627031661,0.9601099000536175,0.17426793444744224,-0.0019338623557222934,0.9846963731017857,31.867907333962936,35.666407598775805,1.7992524545687911,3.3589720652951343
101824.3943752,12261756.0,1327007.75,1712429858816.0,-272.0,0.1667688488960266,-64.0,-0.039239730685949326,-17568.0,10.771306037902832,2709.0,3945.415283203125,2297.0,1682.783935546875,35964.0,271.5337219238281,3.682783842086792,0.9488061666488647,0.5219602925193916,0.433450762628659,29.820311042558277,8.969101361893863,674.2292531948272,20.0699058747679,14.5383549656078,-21.470029679573734,-39.919379293656924,15.442530193866085,-20.065998088865065,0.014050993363208883,-0.005539182700161626,0.9998859370150784,0.09990159839346095,-0.011741640437444823,0.9949280398693512,61.513487761364864,61.09410535635781,4.9393139701235045,4.276383228991657,13753857.0,1377546.875,1712429858816.0,-752.0,0.4610668420791626,192.0,0.11771918833255768,-15664.0,9.603923797607422,2712.0,3949.78466796875,2273.0,1665.201416015625,35653.0,309.8751525878906,3.2271063327789307,1.0,0.40238319302474146,0.22469572252693537,-16.642759664468734,22.714660443215834,108.76049163231235,17.773193464551106,15.19139900846561,-22.12696181564301,-39.602714414917344,15.085521323089898,-20.662598404454595,-0.25365079335459517,0.11517742514144894,0.9604142001076257,0.17426793444744224,-0.0019338623557222934,0.9846963731017857,31.857039561827193,35.666407598775805,1.7987816794936502,3.3589720652951343
101824.4613611,12262012.0,1327015.625,1712429858816.0,-272.0,0.1667688488960266,-32.0,-0.019619865342974663,-17520.0,10.741876602172852,2718.0,3958.523193359375,2321.0,1700.3663330078125,35964.0,271.5337219238281,3.682783842086792,0.9222190082073212,0.5219151546507736,0.43364580772243566,29.73404112442635,8.838614890299237,673.3905576386942,20.0699058747679,14.5383549656078,-21.470029679573734,-39.919379293656924,15.442530193866085,-20.065998088865065,0.01394075849683157,-0.005935036268356055,0.999885208709993,0.09990159839346095,-0.011741640437444823,0.9949280398693512,61.37989132987582,61.09410535635781,4.9283803270535484,4.276383228991657,13754113.0,1377554.75,1712429858816.0,-768.0,0.4708767533302307,208.0,0.12752912938594818,-15632.0,9.584303855895996,2722.0,3964.3486328125,2309.0,1691.5750732421875,35653.0,309.8751525878906,3.2271063327789307,1.0,0.40245133839684194,0.2244224038976862,-16.614664037403205,22.720856027650623,108.65360812165568,17.773193464551106,15.19139900846561,-22.12696181564301,-39.602714414917344,15.085521323089898,-20.662598404454595,-0.25365079335459517,0.11517742514144894,0.9604142001076257,0.1746139288835261,-0.0017517017857697492,0.9846354185081463,31.857039561827193,35.56526731117512,1.7987816794936502,3.3492874170817837
101824.5291951,12262268.0,1327023.5,1712429858816.0,-256.0,0.1569589227437973,-96.0,-0.05885959416627884,-17488.0,10.722256660461426,2719.0,3959.9794921875,2325.0,1703.2967529296875,35964.0,271.5337219238281,3.682783842086792,0.9522253572940826,0.5216960043527653,0.4344696824276846,29.837463573155325,8.431238972663454,681.2012624772578,20.0699058747679,14.5383549656078,-21.470029679573734,-39.919379293656924,15.442530193866085,-20.065998088865065,0.01394075849683157,-0.005935036268356055,0.999885208709993,0.09893669694727122,-0.012703447284204434,0.9950126393288989,61.37989132987582,60.98146078784,4.9283803270535484,4.268621352101812,13754369.0,1377562.5,1712429858816.0,-736.0,0.4512569010257721,208.0,0.12752912938594818,-15664.0,9.603923797607422,2704.0,3938.13330078125,2280.0,1670.3297119140625,35654.0,309.7345275878906,3.2285714149475098,1.0,0.4020826343077812,0.22513516580545856,-16.6507480405436,22.60713334407486,108.45988778727559,17.773193464551106,15.19139900846561,-22.12696181564301,-39.602714414917344,15.085521323089898,-20.662598404454595,-0.2542701941529967,0.11364431326364281,0.9604330473428287,0.1746139288835261,-0.0017517017857697492,0.9846354185081463,31.87071242620083,35.56526731117512,1.799655364225052,3.3492874170817837
101824.597193,12262524.0,1327031.25,1712429858816.0,-288.0,0.17657878994941711,-64.0,-0.039239730685949326,-17600.0,10.790925979614258,2701.0,3933.76416015625,2299.0,1684.2490234375,35965.0,271.42572021484375,3.68424916267395,0.9542899429798126,0.5218219489666427,0.43471780698378204,30.087056082525102,8.30844538063917,683.7247675328624,20.0699058747679,14.5383549656078,-21.470029679573734,-39.919379293656924,15.442530193866085,-20.065998088865065,0.014242736925615508,-0.006215926238323605,0.9998792460621769,0.09893669694727122,-0.012703447284204434,0.9950126393288989,61.73113720408036,60.98146078784,4.957342889741555,4.268621352101812,13754625.0,1377570.25,1712429858816.0,-768.0,0.4708767533302307,144.0,0.08828939497470856,-15712.0,9.633354187011719,2714.0,3952.697509765625,2293.0,1679.853515625,35654.0,309.7345275878906,3.2285714149475098,1.0,0.40214102832280085,0.22468377341003842,-16.628242052160097,22.636575604599514,108.37440673428623,17.773193464551106,15.19139900846561,-22.12696181564301,-39.602714414917344,15.085521323089898,-20.662598404454595,-0.2542701941529967,0.11364431326364281,0.9604330473428287,0.17489138031721144,-0.0012394855291607831,0.9845869533801286,31.87071242620083,35.43024755210263,1.799655364225052,3.3370482882371424
101824.6644067,12262780.0,1327039.0,1712429858816.0,-272.0,0.1667688488960266,-48.0,-0.02942979708313942,-17648.0,10.820355415344238,2708.0,3943.958984375,2281.0,1671.062255859375,35963.0,271.64178466796875,3.681318759918213,0.9331489503383636,0.5220124716115794,0.4342875767618105,29.99034876832227,8.488752021765253,676.7895450676319,20.0699058747679,14.5383549656078,-21.470029679573734,-39.919379293656924,15.442530193866085,-20.065998088865065,0.014242736925615508,-0.006215926238323605,0.9998792460621769,0.09977805177758169,-0.012375115163504811,0.994932759993438,61.73113720408036,61.06358148720144,4.957342889741555,4.274266403148718,13754881.0,1377578.125,1712429858816.0,-736.0,0.4512569010257721,144.0,0.08828939497470856,-15712.0,9.633354187011719,2700.0,3932.3076171875,2264.0,1658.6080322265625,35655.0,309.5940246582031,3.230036735534668,1.0,0.40248150047973413,0.22365154044729674,-16.59523254073327,22.77994888017201,108.54770247180124,17.773193464551106,15.19139900846561,-22.12696181564301,-39.602714414917344,15.085521323089898,-20.662598404454595,-0.2537030323216934,0.11563534788471481,0.9603453741807468,0.17489138031721144,-0.0012394855291607831,0.9845869533801286,31.895156245476173,35.43024755210263,1.800933445795955,3.3370482882371424
101824.732257,12263036.0,1327046.875,1712429858816.0,-272.0,0.1667688488960266,-64.0,-0.039239730685949326,-17696.0,10.849785804748535,2718.0,3958.523193359375,2316.0,1696.7032470703125,35963.0,271.64178466796875,3.681318759918213,0.955360621213913,0.5220226653129825,0.4341497063319122,30.00937005948059,8.575751616957524,676.9662123552907,20.0699058747679,14.5383549656078,-21.470029679573734,-39.919379293656924,15.442530193866085,-20.065998088865065,0.0142683071337861,-0.005962499459601849,0.9998804248567577,0.09977805177758169,-0.012375115163504811,0.994932759993438,61.427900781691875,61.06358148720144,4.932367543592002,4.274266403148718,13755137.0,1377586.0,1712429858816.0,-752.0,0.4610668420791626,224.0,0.1373390555381775,-15680.0,9.613734245300293,2715.0,3954.15380859375,2291.0,1678.3883056640625,35654.0,309.7345275878906,3.2285714149475098,1.0,0.40237945936001,0.2238336511798824,-16.63886464288376,22.796043449614793,108.71357729312152,17.773193464551106,15.19139900846561,-22.12696181564301,-39.602714414917344,15.085521323089898,-20.662598404454595,-0.2537030323216934,0.11563534788471481,0.9603453741807468,0.17435338556067015,-0.0011390471843639172,0.9846824866499068,31.895156245476173,35.58250803196892,1.800933445795955,3.3514521515687448
101824.7994696,12263292.0,1327054.75,1712429858816.0,-288.0,0.17657878994941711,-80.0,-0.04904966428875923,-17664.0,10.83016586303711,2718.0,3958.523193359375,2314.0,1695.238037109375,35963.0,271.64178466796875,3.681318759918213,0.9610626995563507,0.5223139194280269,0.43358503674355575,29.8636833696872,8.786488852526112,666.5986673144935,20.0699058747679,14.5383549656078,-21.470029679573734,-39.919379293656924,15.442530193866085,-20.065998088865065,0.0142683071337861,-0.005962499459601849,0.9998804248567577,0.10106379778323901,-0.012038918876527553,0.9948071035180203,61.427900781691875,61.17865575575911,4.932367543592002,4.282352076817434,13755393.0,1377593.75,1712429858816.0,-768.0,0.4708767533302307,208.0,0.12752912938594818,-15632.0,9.584303855895996,2697.0,3927.9384765625,2261.0,1656.4102783203125,35654.0,309.7345275878906,3.2285714149475098,1.0,0.4014592997392171,0.22477617262786254,-16.729341410624123,22.598053308816255,108.21909257786058,17.773193464551106,15.19139900846561,-22.12696181564301,-39.602714414917344,15.085521323089898,-20.662598404454595,-0.25525853975493984,0.1130948670755104,0.9602357152925256,0.17435338556067015,-0.0011390471843639172,0.9846824866499068,31.938922316489805,35.58250803196892,1.803232092628511,3.3514521515687448
101824.8672707,12263548.0,1327062.5,1712429858816.0,-288.0,0.17657878994941711,-48.0,-0.02942979708313942,-17680.0,10.839975357055664,2704.0,3938.13330078125,2296.0,1682.05126953125,35964.0,271.5337219238281,3.682783842086792,0.9740249216556549,0.5224571177207881,0.43372673234749903,30.140864972422897,8.736414751369011,669.3295271449209,20.0699058747679,14.5383549656078,-21.470029679573734,-39.919379293656924,15.442530193866085,-20.065998088865065,0.01461264410912665,-0.006035949226025818,0.9998750111634359,0.10106379778323901,-0.012038918876527553,0.9948071035180203,61.647988412027516,61.17865575575911,4.950496648892825,4.282352076817434,13755649.0,1377601.5,1712429858816.0,-784.0,0.4806866943836212,224.0,0.1373390555381775,-15664.0,9.603923797607422,2706.0,3941.046142578125,2263.0,1657.87548828125,35653.0,309.8751525878906,3.2271063327789307,1.0,0.4015221874544876,0.22484942788110263,-16.701095356349132,22.567746633948843,108.1124605520408,17.773193464551106,15.19139900846561,-22.12696181564301,-39.602714414917344,15.085521323089898,-20.662598404454595,-0.25525853975493984,0.1130948670755104,0.9602357152925256,0.17470218665843798,-0.001505650569150474,0.9846201699097594,31.938922316489805,35.59212920239859,1.803232092628511,3.3519515319839055
101824.9344485,12263804.0,1327070.25,1712429858816.0,-256.0,0.1569589227437973,-64.0,-0.039239730685949326,-17600.0,10.790925979614258,2702.0,3935.220458984375,2270.0,1663.003662109375,35964.0,271.5337219238281,3.682783842086792,0.9710749685764313,0.5227489240105279,0.43328921971425294,29.99297071898121,8.865541472027925,659.1396935172087,20.0699058747679,14.5383549656078,-21.470029679573734,-39.919379293656924,15.442530193866085,-20.065998088865065,0.01461264410912665,-0.006035949226025818,0.9998750111634359,0.10235143099076838,-0.011929740021161957,0.9946767645206003,61.647988412027516,61.330656208781484,4.950496648892825,4.292919269294455,13755905.0,1377609.375,1712429858816.0,-800.0,0.4904966354370117,128.0,0.07847946137189865,-15744.0,9.652973175048828,2712.0,3949.78466796875,2280.0,1670.3297119140625,35653.0,309.8751525878906,3.2271063327789307,1.0,0.40182092125023655,0.22518662710259263,-16.67125851132222,22.565879991599125,108.2812758056356,17.773193464551106,15.19139900846561,-22.12696181564301,-39.602714414917344,15.085521323089898,-20.662598404454595,-0.25474580303940436,0.11293038630791866,0.9603912242842252,0.17470218665843798,-0.001505650569150474,0.9846201699097594,31.848152098439183,35.59212920239859,1.7982030549920203,3.3519515319839055
101825.001741,12264060.0,1327078.125,1712429858816.0,-240.0,0.1471489816904068,16.0,0.009809932671487331,-17648.0,10.820355415344238,2710.0,3946.871826171875,2291.0,1678.3883056640625,35963.0,271.64178466796875,3.681318759918213,0.9477472901344299,0.52256966734754,0.43296365286639826,29.651305283881616,9.014520464838347,655.8038026811523,20.0699058747679,14.5383549656078,-21.470029679573734,-39.919379293656924,15.442530193866085,-20.065998088865065,0.014182759925387605,-0.00568541242807206,0.9998832558886172,0.10235143099076838,-0.011929740021161957,0.9946767645206003,61.485535469799494,61.330656208781484,4.937086780398803,4.292919269294455,13756161.0,1377617.25,1712429858816.0,-800.0,0.4904966354370117,160.0,0.09809932857751846,-15712.0,9.633354187011719,2713.0,3951.240966796875,2289.0,1676.923095703125,35653.0,309.8751525878906,3.2271063327789307,1.0,0.40179142330320683,0.22753370866709022,-16.66753105089436,22.31620992474905,108.26739567787092,17.773193464551106,15.19139900846561,-22.12696181564301,-39.602714414917344,15.085521323089898,-20.662598404454595,-0.25474580303940436,0.11293038630791866,0.9603912242842252,0.17475048531793846,-0.005240417021751126,0.9845988045445633,31.848152098439183,35.591439530887634,1.7982030549920203,3.351674294596914
101825.0692899,12264316.0,1327086.0,1712429858816.0,-272.0,0.1667688488960266,16.0,0.009809932671487331,-17632.0,10.810545921325684,2717.0,3957.066650390625,2303.0,1687.179443359375,35963.0,271.64178466796875,3.681318759918213,0.9655897617340088,0.5226271322734484,0.43288784621903775,29.623693338451687,9.032718387172944,653.8495935833496,20.0699058747679,14.5383549656078,-21.470029679573734,-39.919379293656924,15.442530193866085,-20.065998088865065,0.014182759925387605,-0.00568541242807206,0.9998832558886172,0.10260493826260232,-0.011926719355558247,0.9946506824054068,61.485535469799494,61.297839015412066,4.937086780398803,4.290376430632923,13756417.0,1377625.0,1712429858816.0,-768.0,0.4708767533302307,240.0,0.1471489816904068,-15680.0,9.613734245300293,2699.0,3930.851318359375,2269.0,1662.2711181640625,35655.0,309.5940246582031,3.230036735534668,1.0,0.4010805792019664,0.22779166879173796,-16.73746373877007,22.213384289284818,107.88147486641384,17.773193464551106,15.19139900846561,-22.12696181564301,-39.602714414917344,15.085521323089898,-20.662598404454595,-0.2559510925723209,0.11169534870248438,0.9602151775978472,0.17475048531793846,-0.005240417021751126,0.9845988045445633,31.81146406634686,35.591439530887634,1.7960905574386787,3.351674294596914
101825.1364884,12264572.0,1327093.75,1712429858816.0,-272.0,0.1667688488960266,-48.0,-0.02942979708313942,-17616.0,10.800735473632812,2701.0,3933.76416015625,2284.0,1673.2601318359375,35963.0,271.64178466796875,3.681318759918213,0.9790652394294739,0.5225398363631606,0.4327760469511859,29.459393169200418,9.076857395649684,652.2533150384648,20.0699058747679,14.5383549656078,-21.470029679573734,-39.919379293656924,15.442530193866085,-20.065998088865065,0.013973134863562525,-0.005596408600916253,0.9998867094390526,0.10260493826260232,-0.011926719355558247,0.9946506824054068,61.4829504295366,61.297839015412066,4.936897222898152,4.290376430632923,13756673.0,1377632.75,1712429858816.0,-800.0,0.4904966354370117,208.0,0.12752912938594818,-15696.0,9.623543739318848,2707.0,3942.502685546875,2272.0,1664.4688720703125,35653.0,309.8751525878906,3.2271063327789307,1.0,0.4011706528142529,0.22795879271562447,-16.696617793170113,22.163727958469032,107.72753587697565,17.773193464551106,15.19139900846561,-22.12696181564301,-39.602714414917344,15.085521323089898,-20.662598404454595,-0.2559510925723209,0.11169534870248438,0.9602151775978472,0.17525623769022117,-0.005866605679141823,0.9845053753476789,31.81146406634686,35.62769016552276,1.7960905574386787,3.354594424269626
101825.2044104,12264828.0,1327101.5,1712429858816.0,-256.0,0.1569589227437973,-64.0,-0.039239730685949326,-17616.0,10.800735473632812,2701.0,3933.76416015625,2269.0,1662.2711181640625,35963.0,271.64178466796875,3.681318759918213,0.9702645838260651,0.5225601880924355,0.4328260303264042,29.448846795249366,9.03743891942877,651.5457323355205,20.0699058747679,14.5383549656078,-21.470029679573734,-39.919379293656924,15.442530193866085,-20.065998088865065,0.013973134863562525,-0.005596408600916253,0.9998867094390526,0.10269537218754914,-0.012062001260712019,0.9946397180169548,61.4829504295366,61.12454946470821,4.936897222898152,4.278215426694426,13756929.0,1377640.625,1712429858816.0,-736.0,0.4512569010257721,208.0,0.12752912938594818,-15680.0,9.613734245300293,2699.0,3930.851318359375,2261.0,1656.4102783203125,35654.0,309.7345275878906,3.2285714149475098,1.0,0.40097988465353546,0.22707036565128824,-16.716113466710738,22.233722347510984,107.61147700224183,17.773193464551106,15.19139900846561,-22.12696181564301,-39.602714414917344,15.085521323089898,-20.662598404454595,-0.2562862701704348,0.1128336232397334,0.9599926672577873,0.17525623769022117,-0.005866605679141823,0.9845053753476789,31.93743840311505,35.62769016552276,1.802848943861032,3.354594424269626
101825.2722867,12265084.0,1327109.375,1712429858816.0,-256.0,0.1569589227437973,-128.0,-0.07847946137189865,-17616.0,10.800735473632812,2715.0,3954.15380859375,2299.0,1684.2490234375,35962.0,271.74993896484375,3.6798534393310547,0.9791159629821777,0.5229256132065246,0.43315659692175623,30.14031938169299,8.932930290218794,658.2462105597513,20.0699058747679,14.5383549656078,-21.470029679573734,-39.919379293656924,15.442530193866085,-20.065998088865065,0.014851839416696832,-0.005729013246251847,0.999873292609201,0.10269537218754914,-0.012062001260712019,0.9946397180169548,61.42670924570751,61.12454946470821,4.932295655923135,4.278215426694426,13757185.0,1377648.5,1712429858816.0,-752.0,0.4610668420791626,160.0,0.09809932857751846,-15696.0,9.623543739318848,2715.0,3954.15380859375,2288.0,1676.1904296875,35653.0,309.8751525878906,3.2271063327789307,1.0,0.4008309746543646,0.22828960340402304,-16.772823649554212,22.15084467522259,107.8245448774868,17.773193464551106,15.19139900846561,-22.12696181564301,-39.602714414917344,15.085521323089898,-20.662598404454595,-0.2562862701704348,0.1128336232397334,0.9599926672577873,0.1745555531375197,-0.0072839285828062705,0.984620385353287,31.93743840311505,35.49073333194378,1.802848943861032,3.3415496860713363
101825.3402008,12265340.0,1327117.25,1712429858816.0,-288.0,0.17657878994941711,-128.0,-0.07847946137189865,-17600.0,10.790925979614258,2721.0,3962.892333984375,2324.0,1702.5640869140625,35963.0,271.64178466796875,3.681318759918213,0.9989991784095764,0.5231525409956693,0.4329486548494005,30.025142778501653,8.95108095992951,650.5188495733425,20.0699058747679,14.5383549656078,-21.470029679573734,-39.919379293656924,15.442530193866085,-20.065998088865065,0.014851839416696832,-0.005729013246251847,0.999873292609201,0.10369637989822642,-0.012211863292990517,0.9945340271659467,61.42670924570751,61.333485332940604,4.932295655923135,4.292845573820783,13757441.0,1377656.25,1712429858816.0,-752.0,0.4610668420791626,176.0,0.10790925472974777,-15696.0,9.623543739318848,2699.0,3930.851318359375,2268.0,1661.5384521484375,35654.0,309.7345275878906,3.2285714149475098,1.0,0.4003804115468809,0.2269898668730843,-16.818028218541798,22.234952290531467,107.5612759132369,17.773193464551106,15.19139900846561,-22.12696181564301,-39.602714414917344,15.085521323089898,-20.662598404454595,-0.2570672038827434,0.11429669086426349,0.9596107122919099,0.1745555531375197,-0.0072839285828062705,0.984620385353287,31.934487094396186,35.49073333194378,1.8023642988178241,3.3415496860713363
101825.4074623,12265596.0,1327125.0,1712429858816.0,-272.0,0.1667688488960266,-96.0,-0.05885959416627884,-17632.0,10.810545921325684,2701.0,3933.76416015625,2287.0,1675.4578857421875,35963.0,271.64178466796875,3.681318759918213,0.979875773191452,0.5228200745200006,0.4326205557152224,29.403500166528648,9.060888428794076,644.5516230706719,20.0699058747679,14.5383549656078,-21.470029679573734,-39.919379293656924,15.442530193866085,-20.065998088865065,0.014052674924913282,-0.005560874519647578,0.999885792979394,0.10369637989822642,-0.012211863292990517,0.9945340271659467,61.590306380811256,61.333485332940604,4.945724755976533,4.292845573820783,13757697.0,1377664.0,1712429858816.0,-736.0,0.4512569010257721,192.0,0.11771918833255768,-15712.0,9.633354187011719,2707.0,3942.502685546875,2273.0,1665.201416015625,35653.0,309.8751525878906,3.2271063327789307,1.0,0.40056120827008523,0.22659529926459454,-16.741290436987146,22.215648967972065,107.27355985643642,17.773193464551106,15.19139900846561,-22.12696181564301,-39.602714414917344,15.085521323089898,-20.662598404454595,-0.2570672038827434,0.11429669086426349,0.9596107122919099,0.17550600902731167,-0.00734574672255775,0.9844509539841958,31.934487094396186,35.41723500093554,1.8023642988178241,3.3345106301033116
101825.4751512,12265852.0,1327132.75,1712429858816.0,-256.0,0.1569589227437973,-112.0,-0.06866952776908875,-17648.0,10.820355415344238,2711.0,3948.328125,2302.0,1686.4468994140625,35963.0,271.64178466796875,3.681318759918213,0.9458745718002319,0.522794751884734,0.43293897206396526,29.411538181493345,8.884860748972919,645.3090439463001,20.0699058747679,14.5383549656078,-21.470029679573734,-39.919379293656924,15.442530193866085,-20.065998088865065,0.014052674924913282,-0.005560874519647578,0.999885792979394,0.10358721764655342,-0.01271877987085449,0.9945390494992353,61.590306380811256,61.25057560783629,4.945724755976533,4.286767577695621,13757953.0,1377671.875,1712429858816.0,-752.0,0.4610668420791626,224.0,0.1373390555381775,-15664.0,9.603923797607422,2706.0,3941.046142578125,2273.0,1665.201416015625,35653.0,309.8751525878906,3.2271063327789307,1.0,0.40020077761415135,0.2264029989883719,-16.776645374395486,22.19675871742107,107.07642401572718,17.773193464551106,15.19139900846561,-22.12696181564301,-39.602714414917344,15.085521323089898,-20.662598404454595,-0.25768057991309584,0.11416688167149915,0.9594616416850944,0.17550600902731167,-0.00734574672255775,0.9844509539841958,31.658778302190093,35.41723500093554,1.7870438071217718,3.3345106301033116
101825.5422975,12266108.0,1327140.625,1712429858816.0,-336.0,0.20600858330726624,-96.0,-0.05885959416627884,-17648.0,10.820355415344238,2716.0,3955.6103515625,2304.0,1687.912109375,35961.0,271.8581848144531,3.6783883571624756,0.9443260133266449,0.5229821376947497,0.4335909420242301,29.763814675679402,8.547884597418847,648.7323723460264,20.0699058747679,14.5383549656078,-21.470029679573734,-39.919379293656924,15.442530193866085,-20.065998088865065,0.014499685814370626,-0.006471130944879767,0.9998739338414512,0.10358721764655342,-0.01271877987085449,0.9945390494992353,61.62515220208369,61.25057560783629,4.948793566396171,4.286767577695621,13758209.0,1377679.75,1712429858816.0,-752.0,0.4610668420791626,240.0,0.1471489816904068,-15680.0,9.613734245300293,2688.0,3914.830810546875,2225.0,1630.03662109375,35653.0,309.8751525878906,3.2271063327789307,1.0,0.4004296468428687,0.2260494463641627,-16.678995946689888,22.156504013419518,106.71117285498835,17.773193464551106,15.19139900846561,-22.12696181564301,-39.602714414917344,15.085521323089898,-20.662598404454595,-0.25768057991309584,0.11416688167149915,0.9594616416850944,0.17672173506874123,-0.007664228191751887,0.9842310135128429,31.658778302190093,35.51183906158109,1.7870438071217718,3.3436462081839853
101825.6100311,12266364.0,1327148.5,1712429858816.0,-272.0,0.1667688488960266,-64.0,-0.039239730685949326,-17600.0,10.790925979614258,2721.0,3962.892333984375,2332.0,1708.4249267578125,35964.0,271.5337219238281,3.682783842086792,0.9698153138160706,0.523078923120334,0.4343407772064404,29.706015091917642,8.06288454418876,645.2776385732649,20.0699058747679,14.5383549656078,-21.470029679573734,-39.919379293656924,15.442530193866085,-20.065998088865065,0.014499685814370626,-0.006471130944879767,0.9998739338414512,0.1040210326158166,-0.014269887030328153,0.9944727221486173,61.62515220208369,61.365082461497295,4.948793566396171,4.295091852648146,13758465.0,1377687.5,1712429858816.0,-736.0,0.4512569010257721,240.0,0.1471489816904068,-15696.0,9.623543739318848,2697.0,3927.9384765625,2230.0,1633.6995849609375,35653.0,309.8751525878906,3.2271063327789307,1.0,0.39930001040738416,0.2253285095584493,-16.78924555501115,22.10996617566956,106.09972162301649,17.773193464551106,15.19139900846561,-22.12696181564301,-39.602714414917344,15.085521323089898,-20.662598404454595,-0.25960038377674244,0.11394172722195335,0.9589707626099171,0.17672173506874123,-0.007664228191751887,0.9842310135128429,31.95495646436713,35.51183906158109,1.8034048118126491,3.3436462081839853
101825.6776625,12266620.0,1327156.25,1712429858816.0,-272.0,0.1667688488960266,-80.0,-0.04904966428875923,-17504.0,10.73206615447998,2705.0,3939.58984375,2294.0,1680.5860595703125,35962.0,271.74993896484375,3.6798534393310547,0.9694214165210724,0.5227868919860565,0.4342822439349281,29.16761569897497,8.032631448759126,640.1447929835033,20.0699058747679,14.5383549656078,-21.470029679573734,-39.919379293656924,15.442530193866085,-20.065998088865065,0.013796279423214342,-0.006723593753960036,0.9998822210446129,0.1040210326158166,-0.014269887030328153,0.9944727221486173,61.6692805647511,61.365082461497295,4.952559459352788,4.295091852648146,13758721.0,1377695.25,1712429858816.0,-752.0,0.4610668420791626,224.0,0.1373390555381775,-15696.0,9.623543739318848,2695.0,3925.025634765625,2229.0,1632.967041015625,35653.0,309.8751525878906,3.2271063327789307,1.0,0.3990883369479241,0.2248957653617577,-16.88534482752358,22.23030353246411,106.45657977825209,17.773193464551106,15.19139900846561,-22.12696181564301,-39.602714414917344,15.085521323089898,-20.662598404454595,-0.25960038377674244,0.11394172722195335,0.9589707626099171,0.17552251894881424,-0.00611910375530747,0.984456399192516,31.95495646436713,35.45408134690457,1.8034048118126491,3.3384058915120693
101825.7447378,12266876.0,1327164.0,1712429858816.0,-224.0,0.1373390555381775,-32.0,-0.019619865342974663,-17600.0,10.790925979614258,2707.0,3942.502685546875,2301.0,1685.7142333984375,35963.0,271.64178466796875,3.681318759918213,0.9363147616386414,0.5227877905940924,0.4335794205200182,29.176091808815578,8.443446233015877,640.3057210487608,20.0699058747679,14.5383549656078,-21.470029679573734,-39.919379293656924,15.442530193866085,-20.065998088865065,0.013796279423214342,-0.006723593753960036,0.9998822210446129,0.10401902269729746,-0.013025587760653637,0.994490008487058,61.6692805647511,61.37486086452784,4.952559459352788,4.295542182921487,13758977.0,1377703.125,1712429858816.0,-784.0,0.4806866943836212,176.0,0.10790925472974777,-15712.0,9.633354187011719,2709.0,3945.415283203125,2258.0,1654.21240234375,35652.0,310.0158996582031,3.2256410121917725,1.0,0.39948294400803813,0.22450378099962032,-16.847532860498653,22.311712934423895,106.66181529438299,17.773193464551106,15.19139900846561,-22.12696181564301,-39.602714414917344,15.085521323089898,-20.662598404454595,-0.2589380770364349,0.11500726960223744,0.9590226275741942,0.17552251894881424,-0.00611910375530747,0.984456399192516,31.750452736897177,35.45408134690457,1.7919032839044915,3.3384058915120693
101825.8124913,12267132.0,1327171.875,1712429858816.0,-256.0,0.1569589227437973,-64.0,-0.039239730685949326,-17616.0,10.800735473632812,2716.0,3955.6103515625,2300.0,1684.981689453125,35962.0,271.74993896484375,3.6798534393310547,0.9288499653339386,0.5229867817930989,0.4332838066710355,29.5401280133893,8.661841086932498,643.7494497119168,20.0699058747679,14.5383549656078,-21.470029679573734,-39.919379293656924,15.442530193866085,-20.065998088865065,0.014277969591730097,-0.005965773262084872,0.9998802673989136,0.10401902269729746,-0.013025587760653637,0.994490008487058,61.84662645039937,61.37486086452784,4.967026284950781,4.295542182921487,13759233.0,1377711.0,1712429858816.0,-800.0,0.4904966354370117,160.0,0.09809932857751846,-15664.0,9.603923797607422,2712.0,3949.78466796875,2275.0,1666.6666259765625,35652.0,310.0158996582031,3.2256410121917725,1.0,0.3993921655949501,0.22414596429329714,-16.890205843128747,22.382642676606757,106.8206737109389,17.773193464551106,15.19139900846561,-22.12696181564301,-39.602714414917344,15.085521323089898,-20.662598404454595,-0.2589380770364349,0.11500726960223744,0.9590226275741942,0.17499205159757236,-0.005173086688020745,0.9845562559101388,31.750452736897177,35.42943143802962,1.7919032839044915,3.335904764149763
101825.8794463,12267388.0,1327179.75,1712429858816.0,-304.0,0.18638871610164642,-64.0,-0.039239730685949326,-17600.0,10.790925979614258,2716.0,3955.6103515625,2318.0,1698.16845703125,35963.0,271.64178466796875,3.681318759918213,0.9412776231765747,0.5233322644585565,0.4327575932750165,29.382368021426025,8.814563340369894,632.6099707070509,20.0699058747679,14.5383549656078,-21.470029679573734,-39.919379293656924,15.442530193866085,-20.065998088865065,0.014277969591730097,-0.005965773262084872,0.9998802673989136,0.105539082742586,-0.012881620015746035,0.9943317182307038,61.84662645039937,61.56608043788641,4.967026284950781,4.308716325682176,13759489.0,1377718.75,1712429858816.0,-768.0,0.4708767533302307,192.0,0.11771918833255768,-15696.0,9.623543739318848,2697.0,3927.9384765625,2251.0,1649.084228515625,35653.0,309.8751525878906,3.2271063327789307,1.0,0.39947241169356823,0.2228874953253549,-16.88349283257692,22.518452788641873,106.84597446938167,17.773193464551106,15.19139900846561,-22.12696181564301,-39.602714414917344,15.085521323089898,-20.662598404454595,-0.2588183403051652,0.11703181149407332,0.9588100029829139,0.17499205159757236,-0.005173086688020745,0.9845562559101388,31.84097200226248,35.42943143802962,1.7968612705859983,3.335904764149763
101825.9473788,12267644.0,1327187.5,1712429858816.0,-368.0,0.22562845051288605,-48.0,-0.02942979708313942,-17664.0,10.83016586303711,2705.0,3939.58984375,2286.0,1674.7252197265625,35962.0,271.74993896484375,3.6798534393310547,0.933923989534378,0.5236383725482723,0.43341315813399606,29.945889382233656,8.509237035503599,637.9515913786244,20.0699058747679,14.5383549656078,-21.470029679573734,-39.919379293656924,15.442530193866085,-20.065998088865065,0.015011130203514723,-0.006737125056186781,0.999864629395395,0.105539082742586,-0.012881620015746035,0.9943317182307038,61.8669301987715,61.56608043788641,4.968870714774591,4.308716325682176,13759745.0,1377726.5,1712429858816.0,-800.0,0.4904966354370117,128.0,0.07847946137189865,-15664.0,9.603923797607422,2707.0,3942.502685546875,2270.0,1663.003662109375,35652.0,310.0158996582031,3.2256410121917725,1.0,0.3994982310843306,0.22379282071167417,-16.865273695262324,22.40982380426756,106.77793728138258,17.773193464551106,15.19139900846561,-22.12696181564301,-39.602714414917344,15.085521323089898,-20.662598404454595,-0.2588183403051652,0.11703181149407332,0.9588100029829139,0.17521911868709256,-0.006763751441834609,0.9845062275643318,31.84097200226248,35.46818067321171,1.7968612705859983,3.3393303785102115
101826.0141497,12267900.0,1327195.25,1712429858816.0,-288.0,0.17657878994941711,-48.0,-0.02942979708313942,-17632.0,10.810545921325684,2709.0,3945.415283203125,2298.0,1683.5164794921875,35963.0,271.64178466796875,3.681318759918213,0.943175196647644,0.5232449397346052,0.43469009194764097,30.12950737937846,7.924086196793798,650.6866272984776,20.0699058747679,14.5383549656078,-21.470029679573734,-39.919379293656924,15.442530193866085,-20.065998088865065,0.015011130203514723,-0.006737125056186781,0.999864629395395,0.10381399075807522,-0.014249209195141875,0.9944946532587269,61.8669301987715,61.48151628251749,4.968870714774591,4.303110506314142,13760001.0,1377734.375,1712429858816.0,-800.0,0.4904966354370117,176.0,0.10790925472974777,-15712.0,9.633354187011719,2716.0,3955.6103515625,2286.0,1674.7252197265625,35652.0,310.0158996582031,3.2256410121917725,1.0,0.3994261324299959,0.2243258856245316,-16.87181316623319,22.348286582408583,106.74681981449318,17.773193464551106,15.19139900846561,-22.12696181564301,-39.602714414917344,15.085521323089898,-20.662598404454595,-0.258933630941506,0.11612971977204298,0.958888556065362,0.17521911868709256,-0.006763751441834609,0.9845062275643318,31.8435099453108,35.46818067321171,1.7970065782364246,3.3393303785102115
101826.0812902,12268156.0,1327203.125,1712429858816.0,-240.0,0.1471489816904068,-96.0,-0.05885959416627884,-17600.0,10.790925979614258,2716.0,3955.6103515625,2300.0,1684.981689453125,35961.0,271.8581848144531,3.6783883571624756,0.956181526184082,0.5231048995788592,0.4347704969291073,30.201642222482093,7.9341325293662965,655.4487823965242,20.0699058747679,14.5383549656078,-21.470029679573734,-39.919379293656924,15.442530193866085,-20.065998088865065,0.015011130203514723,-0.006737125056186781,0.999864629395395,0.10319611999982217,-0.014072518140256092,0.9945614737411531,61.8669301987715,61.43805193671153,4.968870714774591,4.300094646869021,13760257.0,1377742.25,1712429858816.0,-800.0,0.4904966354370117,192.0,0.11771918833255768,-15664.0,9.603923797607422,2721.0,3962.892333984375,2315.0,1695.970703125,35652.0,310.0158996582031,3.2256410121917725,1.0,0.3996001026147764,0.2229556195339013,-16.805617386332166,22.43794487809187,106.5008147076618,17.773193464551106,15.19139900846561,-22.12696181564301,-39.602714414917344,15.085521323089898,-20.662598404454595,-0.258933630941506,0.11612971977204298,0.958888556065362,0.17604133279211137,-0.005198803016633058,0.9843690474593211,31.8435099453108,35.464865903134694,1.7970065782364246,3.339499395294858
101826.1490904,12268412.0,1327211.0,1712429858816.0,-224.0,0.1373390555381775,-48.0,-0.02942979708313942,-17600.0,10.790925979614258,2717.0,3957.066650390625,2321.0,1700.3663330078125,35963.0,271.64178466796875,3.681318759918213,0.9906586110591888,0.5224966509313194,0.4334259454293682,29.057246173396777,8.5864429452849,644.3497188597489,20.0699058747679,14.5383549656078,-21.470029679573734,-39.919379293656924,15.442530193866085,-20.065998088865065,0.013554485369481409,-0.0051286652900549064,0.9998949808448442,0.10319611999982217,-0.014072518140256092,0.9945614737411531,61.6029278222518,61.43805193671153,4.946770493345742,4.300094646869021,13760513.0,1377750.0,1712429858816.0,-832.0,0.5101165175437927,192.0,0.11771918833255768,-15664.0,9.603923797607422,2697.0,3927.9384765625,2269.0,1662.2711181640625,35653.0,309.8751525878906,3.2271063327789307,1.0,0.4002035017861667,0.22217782105960615,-16.747627777998183,22.58128208304089,106.81260007000927,17.773193464551106,15.19139900846561,-22.12696181564301,-39.602714414917344,15.085521323089898,-20.662598404454595,-0.2579217633866657,0.11803480076538934,0.9589286468657547,0.17604133279211137,-0.005198803016633058,0.9843690474593211,31.910024254649766,35.464865903134694,1.800626227623881,3.339499395294858
101826.2163738,12268668.0,1327218.75,1712429858816.0,-272.0,0.1667688488960266,-48.0,-0.02942979708313942,-17584.0,10.781115531921387,2704.0,3938.13330078125,2286.0,1674.7252197265625,35962.0,271.74993896484375,3.6798534393310547,0.976095587015152,0.5227729961979115,0.4340172862885544,29.57220170011125,8.30432445724856,649.3425543988011,20.0699058747679,14.5383549656078,-21.470029679573734,-39.919379293656924,15.442530193866085,-20.065998088865065,0.014216221495956536,-0.005825138523742417,0.9998819764389981,0.10319611999982217,-0.014072518140256092,0.9945614737411531,61.631178768111106,61.43805193671153,4.949245054993148,4.300094646869021,13760769.0,1377757.75,1712429858816.0,-816.0,0.5003065466880798,224.0,0.1373390555381775,-15728.0,9.643163681030273,2706.0,3941.046142578125,2272.0,1664.4688720703125,35653.0,309.8751525878906,3.2271063327789307,1.0,0.40014278703250195,0.22279557706114606,-16.76965064002389,22.53465126451731,106.89476634815769,17.773193464551106,15.19139900846561,-22.12696181564301,-39.602714414917344,15.085521323089898,-20.662598404454595,-0.2579217633866657,0.11803480076538934,0.9589286468657547,0.17576788174553976,-0.005974894796286739,0.984413506804361,31.910024254649766,35.538803057649275,1.800626227623881,3.346247690395696
101826.2842573,12268924.0,1327226.5,1712429858816.0,-224.0,0.1373390555381775,-48.0,-0.02942979708313942,-17616.0,10.800735473632812,2712.0,3949.78466796875,2295.0,1681.3187255859375,35962.0,271.74993896484375,3.6798534393310547,0.9794378578662872,0.5226119579813308,0.4340586485661935,29.65126548097813,8.349693863495947,654.8208338046952,20.0699058747679,14.5383549656078,-21.470029679573734,-39.919379293656924,15.442530193866085,-20.065998088865065,0.014216221495956536,-0.005825138523742417,0.9998819764389981,0.1024845447514496,-0.013778035738742679,0.9946391726743272,61.631178768111106,61.39163800527661,4.949245054993148,4.296869618783548,13761025.0,1377765.625,1712429858816.0,-848.0,0.5199264287948608,192.0,0.11771918833255768,-15680.0,9.613734245300293,2705.0,3939.58984375,2267.0,1660.805908203125,35652.0,310.0158996582031,3.2256410121917725,1.0,0.39988239214707366,0.2222049735010545,-16.795481404991406,22.566268499777784,106.74666580510392,17.773193464551106,15.19139900846561,-22.12696181564301,-39.602714414917344,15.085521323089898,-20.662598404454595,-0.2583703385758865,0.11863268139354011,0.9587340898547212,0.17576788174553976,-0.005974894796286739,0.984413506804361,31.750785451150964,35.538803057649275,1.7918119495190465,3.346247690395696
101826.352206,12269180.0,1327234.375,1712429858816.0,-288.0,0.17657878994941711,-64.0,-0.039239730685949326,-17552.0,10.761495590209961,2721.0,3962.892333984375,2320.0,1699.6336669921875,35961.0,271.8581848144531,3.6783883571624756,0.9456819593906403,0.5223412974312704,0.4346259724959244,29.780524797251076,8.125558732328816,664.0937647292328,20.0699058747679,14.5383549656078,-21.470029679573734,-39.919379293656924,15.442530193866085,-20.065998088865065,0.014216221495956536,-0.005825138523742417,0.9998819764389981,0.101291758935236,-0.014166591971499321,0.9947558932942892,61.631178768111106,61.5173734815224,4.949245054993148,4.305835476855285,13761281.0,1377773.5,1712429858816.0,-816.0,0.5003065466880798,144.0,0.08828939497470856,-15664.0,9.603923797607422,2721.0,3962.892333984375,2306.0,1689.3773193359375,35651.0,310.1567687988281,3.2241759300231934,1.0,0.3998172035297835,0.2207690364578223,-16.834928955647243,22.74737360552828,106.8938640228842,17.773193464551106,15.19139900846561,-22.12696181564301,-39.602714414917344,15.085521323089898,-20.662598404454595,-0.2583703385758865,0.11863268139354011,0.9587340898547212,0.1752761075671456,-0.0033548014423972483,0.9845136014415403,31.750785451150964,35.40539007899858,1.7918119495190465,3.334073186432404
101826.4203358,12269436.0,1327242.25,1712429858816.0,-240.0,0.1471489816904068,-64.0,-0.039239730685949326,-17488.0,10.722256660461426,2720.0,3961.435791015625,2326.0,1704.029296875,35962.0,271.74993896484375,3.6798534393310547,0.9403138756752014,0.5220827547323065,0.4344047896126908,29.288411460613883,8.198733676648535,659.2601968642357,20.0699058747679,14.5383549656078,-21.470029679573734,-39.919379293656924,15.442530193866085,-20.065998088865065,0.013594569218748251,-0.00575269768835568,0.9998910411425151,0.101291758935236,-0.014166591971499321,0.9947558932942892,61.79727333303981,61.5173734815224,4.962916163916066,4.305835476855285,13761537.0,1377781.25,1712429858816.0,-784.0,0.4806866943836212,208.0,0.12752912938594818,-15648.0,9.594114303588867,2696.0,3926.48193359375,2258.0,1654.21240234375,35652.0,310.0158996582031,3.2256410121917725,1.0,0.3995797247280099,0.22222676361769078,-16.85675008956615,22.574221409708237,106.78718043404298,17.773193464551106,15.19139900846561,-22.12696181564301,-39.602714414917344,15.085521323089898,-20.662598404454595,-0.2587538833637185,0.11611536875230195,0.9589388139937356,0.1752761075671456,-0.0033548014423972483,0.9845136014415403,31.898969035296524,35.40539007899858,1.8003721119755753,3.334073186432404
101826.4880135,12269692.0,1327250.0,1712429858816.0,-208.0,0.12752912938594818,-80.0,-0.04904966428875923,-17520.0,10.741876602172852,2701.0,3933.76416015625,2294.0,1680.5860595703125,35962.0,271.74993896484375,3.6798534393310547,0.9574652016162872,0.5218763784008122,0.4347336486370348,28.903798551804076,7.956368799558145,655.5253860314913,20.0699058747679,14.5383549656078,-21.470029679573734,-39.919379293656924,15.442530193866085,-20.065998088865065,0.013094962402900976,-0.006577546219181591,0.9998926231578074,0.101291758935236,-0.014166591971499321,0.9947558932942892,61.72791699262837,61.5173734815224,4.957388796226429,4.305835476855285,13761793.0,1377789.0,1712429858816.0,-768.0,0.4708767533302307,192.0,0.11771918833255768,-15632.0,9.584303855895996,2706.0,3941.046142578125,2266.0,1660.0732421875,35652.0,310.0158996582031,3.2256410121917725,1.0,0.3994322352307802,0.22179703996761313,-16.925047960459395,22.673585307661938,107.041306047435,17.773193464551106,15.19139900846561,-22.12696181564301,-39.602714414917344,15.085521323089898,-20.662598404454595,-0.2587538833637185,0.11611536875230195,0.9589388139937356,0.17442879241906253,-0.002065127591261956,0.9846676249492817,31.898969035296524,35.44643107592713,1.8003721119755753,3.33826428234334
101826.5554053,12269948.0,1327257.75,1712429858816.0,-240.0,0.1471489816904068,16.0,0.009809932671487331,-17504.0,10.73206615447998,2707.0,3942.502685546875,2288.0,1676.1904296875,35961.0,271.8581848144531,3.6783883571624756,0.9845178425312042,0.5219753162095316,0.43422112846110084,28.864929021208383,8.22063143603785,652.2755833761723,20.0699058747679,14.5383549656078,-21.470029679573734,-39.919379293656924,15.442530193866085,-20.065998088865065,0.013094962402900976,-0.006577546219181591,0.9998926231578074,0.10172539289246996,-0.013483208965803267,0.9947211405800406,61.72791699262837,61.408843325910155,4.957388796226429,4.298072524230546,13762049.0,1377796.875,1712429858816.0,-736.0,0.4512569010257721,224.0,0.1373390555381775,-15648.0,9.594114303588867,2705.0,3939.58984375,2265.0,1659.3406982421875,35651.0,310.1567687988281,3.2241759300231934,1.0,0.39984148064235864,0.22309989533445562,-16.884201333917524,22.585845658074497,107.28064933897932,17.773193464551106,15.19139900846561,-22.12696181564301,-39.602714414917344,15.085521323089898,-20.662598404454595,-0.2580432898945232,0.1145992932578559,0.9593125989609492,0.17442879241906253,-0.002065127591261956,0.9846676249492817,31.841547499459192,35.44643107592713,1.7972587496798318,3.33826428234334
101826.6225805,12270204.0,1327265.625,1712429858816.0,-240.0,0.1471489816904068,-32.0,-0.019619865342974663,-17552.0,10.761495590209961,2716.0,3955.6103515625,2309.0,1691.5750732421875,35962.0,271.74993896484375,3.6798534393310547,0.9881553947925568,0.52204289046893,0.4336437368747197,28.84148949313616,8.534702899999148,650.1378503890157,20.0699058747679,14.5383549656078,-21.470029679573734,-39.919379293656924,15.442530193866085,-20.065998088865065,0.013094962402900976,-0.006577546219181591,0.9998926231578074,0.10201948812432154,-0.012613196076804379,0.9947024335586898,61.72791699262837,61.68202828360588,4.957388796226429,4.317440177859342,13762305.0,1377804.75,1712429858816.0,-736.0,0.4512569010257721,176.0,0.10790925472974777,-15664.0,9.603923797607422,2713.0,3951.240966796875,2286.0,1674.7252197265625,35652.0,310.0158996582031,3.2256410121917725,1.0,0.4000688198930916,0.2218516726623787,-16.793179734804923,22.643058087433907,106.94056305340422,17.773193464551106,15.19139900846561,-22.12696181564301,-39.602714414917344,15.085521323089898,-20.662598404454595,-0.2580432898945232,0.1145992932578559,0.9593125989609492,0.17555618030557021,-0.0009119244966649676,0.984468991868322,31.841547499459192,35.590656545089644,1.7972587496798318,3.352286627953553
101826.6903721,12270460.0,1327273.5,1712429858816.0,-288.0,0.17657878994941711,-64.0,-0.039239730685949326,-17632.0,10.810545921325684,2722.0,3964.3486328125,2322.0,1701.098876953125,35962.0,271.74993896484375,3.6798534393310547,0.9637816250324249,0.5223455754075581,0.4339668261771775,29.40699064118893,8.414919597504698,655.658644719442,20.0699058747679,14.5383549656078,-21.470029679573734,-39.919379293656924,15.442530193866085,-20.065998088865065,0.01382197503468111,-0.006774011835695831,0.999881525866835,0.10201948812432154,-0.012613196076804379,0.9947024335586898,61.65701008340747,61.68202828360588,4.9515904736120255,4.317440177859342,13762561.0,1377812.5,1712429858816.0,-720.0,0.4414469599723816,224.0,0.1373390555381775,-15664.0,9.603923797607422,2699.0,3930.851318359375,2263.0,1657.87548828125,35652.0,310.0158996582031,3.2256410121917725,1.0,0.4006755400056122,0.22321569207841063,-16.73276155779886,22.57054254045697,107.28696694459148,17.773193464551106,15.19139900846561,-22.12696181564301,-39.602714414917344,15.085521323089898,-20.662598404454595,-0.2569963368326195,0.11322319926073801,0.959756943191232,0.17555618030557021,-0.0009119244966649676,0.984468991868322,31.9110580967137,35.590656545089644,1.8012788885954643,3.352286627953553
101826.7583374,12270716.0,1327281.25,1712429858816.0,-272.0,0.1667688488960266,-32.0,-0.019619865342974663,-17600.0,10.790925979614258,2704.0,3938.13330078125,2300.0,1684.981689453125,35962.0,271.74993896484375,3.6798534393310547,0.9462809264659882,0.5222317396814891,0.4341555070207601,29.460263729374063,8.351795820544318,659.5527468531204,20.0699058747679,14.5383549656078,-21.470029679573734,-39.919379293656924,15.442530193866085,-20.065998088865065,0.01382197503468111,-0.006774011835695831,0.999881525866835,0.10151727469265019,-0.012687812014586117,0.9947528649696162,61.65701008340747,61.758066535540266,4.9515904736120255,4.322682208429059,13762817.0,1377820.25,1712429858816.0,-752.0,0.4610668420791626,192.0,0.11771918833255768,-15664.0,9.603923797607422,2706.0,3941.046142578125,2267.0,1660.805908203125,35652.0,310.0158996582031,3.2256410121917725,1.0,0.4005401475920511,0.22411142829997255,-16.785824651665173,22.519457465374295,107.48617046206334,17.773193464551106,15.19139900846561,-22.12696181564301,-39.602714414917344,15.085521323089898,-20.662598404454595,-0.2569963368326195,0.11322319926073801,0.959756943191232,0.17489903549499253,-0.0018495398192574786,0.9845846365779725,31.9110580967137,35.4213384619405,1.8012788885954643,3.3362458660293104
101826.8252933,12270972.0,1327289.0,1712429858816.0,-272.0,0.1667688488960266,-112.0,-0.06866952776908875,-17616.0,10.800735473632812,2716.0,3955.6103515625,2299.0,1684.2490234375,35961.0,271.8581848144531,3.6783883571624756,0.9521476328372955,0.5221184829470094,0.43413354149041306,29.246750576902656,8.338432440951182,657.4662543718158,20.0699058747679,14.5383549656078,-21.470029679573734,-39.919379293656924,15.442530193866085,-20.065998088865065,0.013549166373716047,-0.0068732156501945104,0.999884582838041,0.10151727469265019,-0.012687812014586117,0.9947528649696162,61.83289824646805,61.758066535540266,4.966114496872349,4.322682208429059,13763073.0,1377828.125,1712429858816.0,-768.0,0.4708767533302307,192.0,0.11771918833255768,-15664.0,9.603923797607422,2699.0,3930.851318359375,2256.0,1652.7471923828125,35652.0,310.0158996582031,3.2256410121917725,1.0,0.3996203113931438,0.22335482181903987,-16.876098167065006,22.49688788196922,106.97854148224295,17.773193464551106,15.19139900846561,-22.12696181564301,-39.602714414917344,15.085521323089898,-20.662598404454595,-0.25856589065245045,0.11329744322721412,0.9593265187355561,0.17489903549499253,-0.0018495398192574786,0.9845846365779725,31.866449969332805,35.4213384619405,1.7986207211316199,3.3362458660293104
101826.8926998,12271228.0,1327296.875,1712429858816.0,-240.0,0.1471489816904068,-96.0,-0.05885959416627884,-17616.0,10.800735473632812,2719.0,3959.9794921875,2331.0,1707.6922607421875,35962.0,271.74993896484375,3.6798534393310547,0.9430166780948639,0.5224275413760313,0.43365338184193924,29.106846968921595,8.488755854151059,647.0536400787653,20.0699058747679,14.5383549656078,-21.470029679573734,-39.919379293656924,15.442530193866085,-20.065998088865065,0.013549166373716047,-0.0068732156501945104,0.999884582838041,0.1028805793301616,-0.012542402816017387,0.994614636192476,61.83289824646805,61.84865720175715,4.966114496872349,4.3291836440541935,13763329.0,1377836.0,1712429858816.0,-752.0,0.4610668420791626,160.0,0.09809932857751846,-15632.0,9.584303855895996,2714.0,3952.697509765625,2281.0,1671.062255859375,35652.0,310.0158996582031,3.2256410121917725,1.0,0.39944947809816933,0.22380615661461556,-16.948304552153708,22.507267025850627,107.2475988612515,17.773193464551106,15.19139900846561,-22.12696181564301,-39.602714414917344,15.085521323089898,-20.662598404454595,-0.25856589065245045,0.11329744322721412,0.9593265187355561,0.17400574614305114,-0.0019166437631736588,0.9847427718881134,31.866449969332805,35.72794340860938,1.7986207211316199,3.364880773912332
101826.9602951,12271484.0,1327304.75,1712429858816.0,-224.0,0.1373390555381775,-128.0,-0.07847946137189865,-17616.0,10.800735473632812,2715.0,3954.15380859375,2318.0,1698.16845703125,35961.0,271.8581848144531,3.6783883571624756,0.9144541323184967,0.5221060499769776,0.4338867463363658,28.520205962390257,8.278727575260776,641.4215890944222,20.0699058747679,14.5383549656078,-21.470029679573734,-39.919379293656924,15.442530193866085,-20.065998088865065,0.012773082657733312,-0.00767099814348128,0.999888995912497,0.1028805793301616,-0.012542402816017387,0.994614636192476,61.91269193312771,61.84865720175715,4.972880417620975,4.3291836440541935,13763585.0,1377843.75,1712429858816.0,-752.0,0.4610668420791626,176.0,0.10790925472974777,-15568.0,9.545063972473145,2700.0,3932.3076171875,2259.0,1654.945068359375,35652.0,310.0158996582031,3.2256410121917725,1.0,0.4006845778525162,0.22482177169058337,-16.827006596101914,22.53775047378005,107.93329808975645,17.773193464551106,15.19139900846561,-22.12696181564301,-39.602714414917344,15.085521323089898,-20.662598404454595,-0.2564570050921343,0.113197717959302,0.959904204172468,0.17400574614305114,-0.0019166437631736588,0.9847427718881134,31.789781706578587,35.72794340860938,1.794675700592848,3.364880773912332
101827.027435,12271740.0,1327312.5,1712429858816.0,-288.0,0.17657878994941711,-96.0,-0.05885959416627884,-17616.0,10.800735473632812,2701.0,3933.76416015625,2296.0,1682.05126953125,35962.0,271.74993896484375,3.6798534393310547,0.9348101913928986,0.5220340431360598,0.4333563969806361,28.386856202847525,8.569915125757174,640.0939154184798,20.0699058747679,14.5383549656078,-21.470029679573734,-39.919379293656924,15.442530193866085,-20.065998088865065,0.012603541317270196,-0.006832875743130639,0.9998972259964235,0.1028805793301616,-0.012542402816017387,0.994614636192476,61.85825172329766,61.84865720175715,4.96820425687095,4.3291836440541935,13763841.0,1377851.5,1712429858816.0,-816.0,0.5003065466880798,192.0,0.11771918833255768,-15680.0,9.613734245300293,2707.0,3942.502685546875,2268.0,1661.5384521484375,35651.0,310.1567687988281,3.2241759300231934,1.0,0.4006620987294517,0.2253434566897624,-16.83317594784125,22.487953790205744,107.95659297511574,17.773193464551106,15.19139900846561,-22.12696181564301,-39.602714414917344,15.085521323089898,-20.662598404454595,-0.2564570050921343,0.113197717959302,0.959904204172468,0.17393019361062032,-0.0026847186051058847,0.9847543247107796,31.789781706578587,35.54295636925457,1.794675700592848,3.347427171013024
101827.0943619,12271996.0,1327320.25,1712429858816.0,-320.0,0.19619865715503693,-64.0,-0.039239730685949326,-17632.0,10.810545921325684,2703.0,3936.677001953125,2275.0,1666.6666259765625,35961.0,271.8581848144531,3.6783883571624756,0.9443922936916351,0.521883295573011,0.43346875868240464,28.44999568357116,8.570502549969689,645.0614287035462,20.0699058747679,14.5383549656078,-21.470029679573734,-39.919379293656924,15.442530193866085,-20.065998088865065,0.012603541317270196,-0.006832875743130639,0.9998972259964235,0.10221459646514669,-0.012396807796114786,0.994685123758234,61.85825172329766,61.74217274429619,4.96820425687095,4.321413839702303,13764097.0,1377859.375,1712429858816.0,-752.0,0.4610668420791626,160.0,0.09809932857751846,-15696.0,9.623543739318848,2698.0,3929.394775390625,2253.0,1650.5494384765625,35652.0,310.0158996582031,3.2256410121917725,1.0,0.40000955087326817,0.22488205509045034,-16.897358662036204,22.464297167282325,107.59429237001879,17.773193464551106,15.19139900846561,-22.12696181564301,-39.602714414917344,15.085521323089898,-20.662598404454595,-0.25757080766615364,0.1131351861039413,0.9596133120707695,0.17393019361062032,-0.0026847186051058847,0.9847543247107796,31.86254595737379,35.54295636925457,1.7985426847115082,3.347427171013024
101827.1614443,12272252.0,1327328.125,1712429858816.0,-288.0,0.17657878994941711,-64.0,-0.039239730685949326,-17616.0,10.800735473632812,2716.0,3955.6103515625,2304.0,1687.912109375,35961.0,271.8581848144531,3.6783883571624756,0.9599417746067047,0.5221871363189015,0.432347962019174,28.334634521116016,9.08870939863814,635.3649830170527,20.0699058747679,14.5383549656078,-21.470029679573734,-39.919379293656924,15.442530193866085,-20.065998088865065,0.012603541317270196,-0.006832875743130639,0.9998972259964235,0.10354873632459571,-0.011104512136548677,0.9945623907105017,61.85825172329766,61.84568345162201,4.96820425687095,4.328685735267909,13764353.0,1377867.25,1712429858816.0,-752.0,0.4610668420791626,208.0,0.12752912938594818,-15696.0,9.623543739318848,2714.0,3952.697509765625,2277.0,1668.1318359375,35651.0,310.1567687988281,3.2241759300231934,1.0,0.3999171058932423,0.22492953986666053,-16.9380374343707,22.49159201367673,107.74646131755372,17.773193464551106,15.19139900846561,-22.12696181564301,-39.602714414917344,15.085521323089898,-20.662598404454595,-0.25757080766615364,0.1131351861039413,0.9596133120707695,0.17342879957909066,-0.0023987529191999424,0.9848434888148412,31.86254595737379,35.61476722454907,1.7985426847115082,3.354130501535145
101827.2297017,12272508.0,1327336.0,1712429858816.0,-256.0,0.1569589227437973,-48.0,-0.02942979708313942,-17680.0,10.839975357055664,2719.0,3959.9794921875,2317.0,1697.4359130859375,35961.0,271.8581848144531,3.6783883571624756,0.9702046513557434,0.5224370378246882,0.43226066268029684,28.784801444962262,9.20111459836141,639.6663168902172,20.0699058747679,14.5383549656078,-21.470029679573734,-39.919379293656924,15.442530193866085,-20.065998088865065,0.013205962806503057,-0.006376551490084794,0.9998924652868666,0.10354873632459571,-0.011104512136548677,0.9945623907105017,61.868437028074105,61.84568345162201,4.968941635984457,4.328685735267909,13764609.0,1377875.0,1712429858816.0,-736.0,0.4512569010257721,144.0,0.08828939497470856,-15728.0,9.643163681030273,2700.0,3932.3076171875,2259.0,1654.945068359375,35651.0,310.1567687988281,3.2241759300231934,1.0,0.4007051778484928,0.2248271700098311,-16.861065323502906,22.587779904987677,108.17614334564317,17.773193464551106,15.19139900846561,-22.12696181564301,-39.602714414917344,15.085521323089898,-20.662598404454595,-0.25623364520330244,0.11422441013112478,0.9598422282833906,0.17342879957909066,-0.0023987529191999424,0.9848434888148412,31.6695697191885,35.61476722454907,1.788085541880847,3.354130501535145
101827.2969464,12272764.0,1327343.75,1712429858816.0,-272.0,0.1667688488960266,-80.0,-0.04904966428875923,-17648.0,10.820355415344238,2704.0,3938.13330078125,2294.0,1680.5860595703125,35961.0,271.8581848144531,3.6783883571624756,0.9428563117980957,0.5222632183179681,0.43167450790617645,28.870062556730083,9.629921808066456,645.5862760160144,20.0699058747679,14.5383549656078,-21.470029679573734,-39.919379293656924,15.442530193866085,-20.065998088865065,0.013205962806503057,-0.006376551490084794,0.9998924652868666,0.10277509577687187,-0.009666564879162792,0.9946576482446068,61.868437028074105,61.977629401238595,4.968941635984457,4.33751788627927,13764865.0,1377882.75,1712429858816.0,-688.0,0.421827107667923,176.0,0.10790925472974777,-15728.0,9.643163681030273,2706.0,3941.046142578125,2262.0,1657.142822265625,35651.0,310.1567687988281,3.2241759300231934,1.0,0.4006317779672644,0.2264303883808042,-16.881957306688562,22.43583838471671,108.25483915228935,17.773193464551106,15.19139900846561,-22.12696181564301,-39.602714414917344,15.085521323089898,-20.662598404454595,-0.25623364520330244,0.11422441013112478,0.9598422282833906,0.1731735656156796,-0.004743801729849673,0.9848798975088788,31.6695697191885,35.455163668277706,1.788085541880847,3.3393082326777046
101827.3645596,12273020.0,1327351.5,1712429858816.0,-304.0,0.18638871610164642,-64.0,-0.039239730685949326,-17600.0,10.790925979614258,2704.0,3938.13330078125,2276.0,1667.3992919921875,35961.0,271.8581848144531,3.6783883571624756,0.9208978116512299,0.5219827010740505,0.43121921783744255,28.356820337293513,9.820305587652594,640.5990651414915,20.0699058747679,14.5383549656078,-21.470029679573734,-39.919379293656924,15.442530193866085,-20.065998088865065,0.012533696283226516,-0.00592346465387381,0.9999039048948525,0.10277509577687187,-0.009666564879162792,0.9946576482446068,61.682760653738285,61.977629401238595,4.953572314082028,4.33751788627927,13765121.0,1377890.625,1712429858816.0,-736.0,0.4512569010257721,192.0,0.11771918833255768,-15680.0,9.613734245300293,2713.0,3951.240966796875,2285.0,1673.99267578125,35650.0,310.29779052734375,3.222710609436035,1.0,0.40006717843790024,0.22631495146228842,-16.937293722304105,22.386504072818298,107.94370369153057,17.773193464551106,15.19139900846561,-22.12696181564301,-39.602714414917344,15.085521323089898,-20.662598404454595,-0.25719413149576886,0.11373501244260378,0.9596434367351333,0.1731735656156796,-0.004743801729849673,0.9848798975088788,31.984859665174366,35.455163668277706,1.8057237912051556,3.3393082326777046
101827.4323115,12273276.0,1327359.375,1712429858816.0,-288.0,0.17657878994941711,-80.0,-0.04904966428875923,-17616.0,10.800735473632812,2720.0,3961.435791015625,2307.0,1690.10986328125,35961.0,271.8581848144531,3.6783883571624756,0.9006162583827972,0.5223978863086133,0.4267748545656831,28.237623204983663,12.169832830925674,628.3428706256968,20.0699058747679,14.5383549656078,-21.470029679573734,-39.919379293656924,15.442530193866085,-20.065998088865065,0.012533696283226516,-0.00592346465387381,0.9999039048948525,0.1045712433240008,-0.0027406863888618078,0.9945136216803623,61.682760653738285,61.890752641173044,4.953572314082028,4.328448431404384,13765377.0,1377898.5,1712429858816.0,-768.0,0.4708767533302307,192.0,0.11771918833255768,-15712.0,9.633354187011719,2712.0,3949.78466796875,2285.0,1673.99267578125,35650.0,310.29779052734375,3.222710609436035,1.0,0.4001178151132775,0.22583169253506252,-16.918342387459795,22.42219423815048,107.87270380982889,17.773193464551106,15.19139900846561,-22.12696181564301,-39.602714414917344,15.085521323089898,-20.662598404454595,-0.25719413149576886,0.11373501244260378,0.9596434367351333,0.17340623394286925,-0.004149195269690514,0.984841643213956,31.984859665174366,35.37858744158887,1.8057237912051556,3.3317314404262848
101827.4999291,12273532.0,1327367.25,1712429858816.0,-352.0,0.21581850945949554,-80.0,-0.04904966428875923,-17616.0,10.800735473632812,2688.0,3914.830810546875,2249.0,1647.6190185546875,35961.0,271.8581848144531,3.6783883571624756,0.9442132413387299,0.5226353857171623,0.4236153412886724,28.6429298687163,14.053823853555862,631.9301864616177,20.0699058747679,14.5383549656078,-21.470029679573734,-39.919379293656924,15.442530193866085,-20.065998088865065,0.013128886477930908,-0.00011904806348354987,0.9999138053689469,0.1045712433240008,-0.0027406863888618078,0.9945136216803623,61.573394742392225,61.890752641173044,4.943350516182478,4.328448431404384,13765633.0,1377906.25,1712429858816.0,-752.0,0.4610668420791626,176.0,0.10790925472974777,-15728.0,9.643163681030273,2699.0,3930.851318359375,2267.0,1660.805908203125,35651.0,310.1567687988281,3.2241759300231934,1.0,0.3998533906427405,0.22593078778212006,-16.94403506294639,22.383548783117952,107.72985538751931,17.773193464551106,15.19139900846561,-22.12696181564301,-39.602714414917344,15.085521323089898,-20.662598404454595,-0.25764156670705385,0.11327068750612672,0.9595783315897791,0.17340623394286925,-0.004149195269690514,0.984841643213956,31.741467690766314,35.37858744158887,1.7919269274565264,3.3317314404262848
101827.5673642,12273788.0,1327375.0,1712429858816.0,-272.0,0.1667688488960266,-64.0,-0.039239730685949326,-17536.0,10.751686096191406,2703.0,3936.677001953125,2259.0,1654.945068359375,35960.0,271.9665222167969,3.6769230365753174,0.9442132413387299,0.5226201431031281,0.41966584079256075,28.593368676604758,16.30157162466299,631.1308026023314,20.0699058747679,14.5383549656078,-21.470029679573734,-39.919379293656924,15.442530193866085,-20.065998088865065,0.013120298334215547,0.00675417448057219,0.9998911135212211,0.1045712433240008,-0.0027406863888618078,0.9945136216803623,61.873510050218734,61.890752641173044,4.966586249818961,4.328448431404384,13765889.0,1377914.0,1712429858816.0,-784.0,0.4806866943836212,208.0,0.12752912938594818,-15728.0,9.643163681030273,2711.0,3948.328125,2282.0,1671.794921875,35650.0,310.29779052734375,3.222710609436035,1.0,0.3995135845235023,0.22816601901631794,-17.07918130406728,22.25523402655408,108.23513748217223,17.773193464551106,15.19139900846561,-22.12696181564301,-39.602714414917344,15.085521323089898,-20.662598404454595,-0.25764156670705385,0.11327068750612672,0.9595783315897791,0.171750141321311,-0.006484011918688165,0.9851192042314209,31.741467690766314,35.53903778931095,1.7919269274565264,3.347188147009336
101827.6353513,12274044.0,1327382.75,1712429858816.0,-304.0,0.18638871610164642,-80.0,-0.04904966428875923,-17536.0,10.751686096191406,2707.0,3942.502685546875,2280.0,1670.3297119140625,35961.0,271.8581848144531,3.6783883571624756,0.9886666238307953,0.5225490370539435,0.41648177259600916,28.662408336076957,18.21705981619391,634.2186290247921,20.0699058747679,14.5383549656078,-21.470029679573734,-39.919379293656924,15.442530193866085,-20.065998088865065,0.013120298334215547,0.00675417448057219,0.9998911135212211,0.10423028251090123,0.0030731051291293956,0.9945484423760178,61.873510050218734,61.83638541886793,4.966586249818961,4.322710453086711,13766145.0,1377921.875,1712429858816.0,-784.0,0.4806866943836212,208.0,0.12752912938594818,-15648.0,9.594114303588867,2703.0,3936.677001953125,2274.0,1665.93408203125,35650.0,310.29779052734375,3.222710609436035,1.0,0.4005646897475056,0.22760018590051978,-16.976977539590234,22.427041601587337,108.80742684590783,17.773193464551106,15.19139900846561,-22.12696181564301,-39.602714414917344,15.085521323089898,-20.662598404454595,-0.25586260907670977,0.11537981482697786,0.9598030129182504,0.171750141321311,-0.006484011918688165,0.9851192042314209,31.510882843570844,35.53903778931095,1.779213273912557,3.347188147009336
101827.7023637,12274300.0,1327390.625,1712429858816.0,-160.0,0.09809932857751846,-64.0,-0.039239730685949326,-17536.0,10.751686096191406,2720.0,3961.435791015625,2302.0,1686.4468994140625,35959.0,272.074951171875,3.6754579544067383,0.9886666238307953,0.5226314392635748,0.41474223620439266,28.80097206935424,19.255635638569753,635.3850869633518,20.0699058747679,14.5383549656078,-21.470029679573734,-39.919379293656924,15.442530193866085,-20.065998088865065,0.013331076039952774,0.00989336169540091,0.9998621924075242,0.10423028251090123,0.0030731051291293956,0.9945484423760178,61.81764463800743,61.83638541886793,4.961302443475584,4.322710453086711,13766401.0,1377929.75,1712429858816.0,-784.0,0.4806866943836212,208.0,0.12752912938594818,-15616.0,9.574494361877441,2721.0,3962.892333984375,2305.0,1688.6446533203125,35649.0,310.4389343261719,3.221245527267456,1.0,0.4005099261908029,0.22914561245727316,-16.989990089236436,22.273958712726085,108.85583430217753,17.773193464551106,15.19139900846561,-22.12696181564301,-39.602714414917344,15.085521323089898,-20.662598404454595,-0.25586260907670977,0.11537981482697786,0.9598030129182504,0.171592856756071,-0.008810004413007971,0.9851285577692553,31.510882843570844,35.48381002797618,1.779213273912557,3.3415726828697565
101827.7692925,12274556.0,1327398.5,1712429858816.0,-144.0,0.08828939497470856,-32.0,-0.019619865342974663,-17600.0,10.790925979614258,2688.0,3914.830810546875,2253.0,1650.5494384765625,35962.0,271.74993896484375,3.6798534393310547,0.991434633731842,0.522903825341632,0.41314199278637764,28.701223957399243,19.916423372718164,627.0670278466404,20.0699058747679,14.5383549656078,-21.470029679573734,-39.919379293656924,15.442530193866085,-20.065998088865065,0.013331076039952774,0.00989336169540091,0.9998621924075242,0.10542024621751457,0.0052729156482774035,0.9944137811032211,61.81764463800743,61.902154238789606,4.961302443475584,4.32696213444958,13766657.0,1377937.5,1712429858816.0,-768.0,0.4708767533302307,224.0,0.1373390555381775,-15696.0,9.623543739318848,2699.0,3930.851318359375,2275.0,1666.6666259765625,35651.0,310.1567687988281,3.2241759300231934,1.0,0.40081697920780723,0.22782317086479686,-16.96087830883056,22.443371471944836,109.00777478171645,17.773193464551106,15.19139900846561,-22.12696181564301,-39.602714414917344,15.085521323089898,-20.662598404454595,-0.2553559539854051,0.11777377003387907,0.9596471621675386,0.171592856756071,-0.008810004413007971,0.9851285577692553,31.734175038837957,35.48381002797618,1.7917408891254736,3.3415726828697565
101827.8363705,12274812.0,1327406.25,1712429858816.0,-224.0,0.1373390555381775,-32.0,-0.019619865342974663,-17568.0,10.771306037902832,2706.0,3941.046142578125,2258.0,1654.21240234375,35960.0,271.9665222167969,3.6769230365753174,1.0,0.5229304617452069,0.41348559918841765,28.685676390549272,19.691475781475077,626.143808466687,20.0699058747679,14.5383549656078,-21.470029679573734,-39.919379293656924,15.442530193866085,-20.065998088865065,0.013331076039952774,0.00989336169540091,0.9998621924075242,0.10554072509144218,0.004601039574777862,0.9944043371697472,61.81764463800743,62.03898096592314,4.961302443475584,4.336730628861252,13766913.0,1377945.25,1712429858816.0,-720.0,0.4414469599723816,176.0,0.10790925472974777,-15728.0,9.643163681030273,2708.0,3943.958984375,2273.0,1665.201416015625,35650.0,310.29779052734375,3.222710609436035,1.0,0.40096176370331216,0.22819305097167808,-16.8932345236611,22.35085850365911,108.75192419678328,17.773193464551106,15.19139900846561,-22.12696181564301,-39.602714414917344,15.085521323089898,-20.662598404454595,-0.2553559539854051,0.11777377003387907,0.9596471621675386,0.17241948610847607,-0.009987020459559931,0.9849729845190828,31.734175038837957,35.61148545129103,1.7917408891254736,3.35386872449652
101827.9033723,12275068.0,1327414.0,1712429858816.0,-224.0,0.1373390555381775,-96.0,-0.05885959416627884,-17552.0,10.761495590209961,2709.0,3945.415283203125,2286.0,1674.7252197265625,35961.0,271.8581848144531,3.6783883571624756,1.0,0.5239033934116797,0.4149427980384466,30.468256073915576,19.37077369139377,642.9988533153273,20.0699058747679,14.5383549656078,-21.470029679573734,-39.919379293656924,15.442530193866085,-20.065998088865065,0.01566599130100585,0.00856164010872614,0.9998406248173783,0.10554072509144218,0.004601039574777862,0.9944043371697472,62.0380801147802,62.03898096592314,4.979628149236297,4.336730628861252,13767169.0,1377953.125,1712429858816.0,-784.0,0.4806866943836212,160.0,0.09809932857751846,-15696.0,9.623543739318848,2704.0,3938.13330078125,2264.0,1658.6080322265625,35650.0,310.29779052734375,3.222710609436035,1.0,0.40057618549696616,0.22780708263251015,-16.93144981918681,22.3486469486122,108.53320841871474,17.773193464551106,15.19139900846561,-22.12696181564301,-39.602714414917344,15.085521323089898,-20.662598404454595,-0.25601638324972115,0.1179115595936578,0.9594542592650901,0.17241948610847607,-0.009987020459559931,0.9849729845190828,31.884508390954213,35.61148545129103,1.79990395663862,3.35386872449652
101827.9705823,12275324.0,1327421.875,1712429858816.0,-288.0,0.17657878994941711,-48.0,-0.02942979708313942,-17632.0,10.810545921325684,2716.0,3955.6103515625,2292.0,1679.120849609375,35959.0,272.074951171875,3.6754579544067383,1.0,0.5233139317378998,0.4145476363451852,29.37974442298256,19.28856574056135,632.7480636965865,20.0699058747679,14.5383549656078,-21.470029679573734,-39.919379293656924,15.442530193866085,-20.065998088865065,0.01424738681754964,0.008517375779503124,0.9998622236481896,0.10554072509144218,0.004601039574777862,0.9944043371697472,61.90588647120323,62.03898096592314,4.968727906778095,4.336730628861252,13767425.0,1377961.0,1712429858816.0,-704.0,0.4316370189189911,160.0,0.09809932857751846,-15616.0,9.574494361877441,2714.0,3952.697509765625,2285.0,1673.99267578125,35650.0,310.29779052734375,3.222710609436035,1.0,0.4003832725163378,0.22944976348852686,-17.005423351884307,22.23327754995136,108.8106977848017,17.773193464551106,15.19139900846561,-22.12696181564301,-39.602714414917344,15.085521323089898,-20.662598404454595,-0.25601638324972115,0.1179115595936578,0.9594542592650901,0.17151713731019358,-0.01193255925792941,0.9851088699420344,31.884508390954213,35.54078710379977,1.79990395663862,3.3471122809299976
101828.03835,12275580.0,1327429.75,1712429858816.0,-272.0,0.1667688488960266,-48.0,-0.02942979708313942,-17632.0,10.810545921325684,2687.0,3913.374267578125,2484.0,1819.7802734375,35962.0,271.74993896484375,3.6798534393310547,0.9983527958393097,0.5233738698449553,0.41459101600218695,29.351235530084512,19.20492853016971,630.8181611259022,20.0699058747679,14.5383549656078,-21.470029679573734,-39.919379293656924,15.442530193866085,-20.065998088865065,0.01424738681754964,0.008517375779503124,0.9998622236481896,0.10580560526565781,0.00438375142724423,0.9943771702014241,61.90588647120323,62.25710529334203,4.968727906778095,4.352129713808854,13767681.0,1377968.75,1712429858816.0,-720.0,0.4414469599723816,240.0,0.1471489816904068,-15632.0,9.584303855895996,2701.0,3933.76416015625,2265.0,1659.3406982421875,35650.0,310.29779052734375,3.222710609436035,1.0,0.4003559470603383,0.22878674839787583,-17.008624728835358,22.298416822129496,108.78613607683704,17.773193464551106,15.19139900846561,-22.12696181564301,-39.602714414917344,15.085521323089898,-20.662598404454595,-0.25607057872808675,0.11889717471478102,0.9593181539795365,0.17151713731019358,-0.01193255925792941,0.9851088699420344,31.578541631275698,35.54078710379977,1.782799657911117,3.3471122809299976
101828.1055447,12275836.0,1327437.5,1712429858816.0,-304.0,0.18638871610164642,-64.0,-0.039239730685949326,-17616.0,10.800735473632812,2702.0,3935.220458984375,2358.0,1727.4725341796875,35960.0,271.9665222167969,3.6769230365753174,0.9983527958393097,0.5232852443754006,0.41492702467675946,29.19335849731237,18.968377153056494,629.368513818122,20.0699058747679,14.5383549656078,-21.470029679573734,-39.919379293656924,15.442530193866085,-20.065998088865065,0.014031416381295934,0.007820594089140619,0.9998709705069088,0.10580560526565781,0.00438375142724423,0.9943771702014241,62.05472969854478,62.25710529334203,4.981089508579842,4.352129713808854,13767937.0,1377976.5,1712429858816.0,-736.0,0.4512569010257721,240.0,0.1471489816904068,-15648.0,9.594114303588867,2708.0,3943.958984375,2271.0,1663.7362060546875,35650.0,310.29779052734375,3.222710609436035,1.0,0.4001350472199511,0.22831550403475986,-17.11192632243737,22.42943853342522,109.17582210840618,17.773193464551106,15.19139900846561,-22.12696181564301,-39.602714414917344,15.085521323089898,-20.662598404454595,-0.25607057872808675,0.11889717471478102,0.9593181539795365,0.17026004078927712,-0.010287167191887547,0.9853454687070927,31.578541631275698,35.481489808105685,1.782799657911117,3.341052718351822
101828.1733472,12276092.0,1327445.25,1712429858816.0,-256.0,0.1569589227437973,-80.0,-0.04904966428875923,-17696.0,10.849785804748535,2717.0,3957.066650390625,2351.0,1722.3443603515625,35961.0,271.8581848144531,3.6783883571624756,0.9699243605136871,0.5226341264048446,0.41604069864468884,29.486652443707932,18.944827801599537,650.4702897582913,20.0699058747679,14.5383549656078,-21.470029679573734,-39.919379293656924,15.442530193866085,-20.065998088865065,0.014031416381295934,0.007820594089140619,0.9998709705069088,0.10293784973003074,0.003931746984618599,0.9946800191310804,62.05472969854478,62.206627927421664,4.981089508579842,4.349083787074057,13768193.0,1377984.375,1712429858816.0,-816.0,0.5003065466880798,192.0,0.11771918833255768,-15696.0,9.623543739318848,2703.0,3936.677001953125,2264.0,1658.6080322265625,35650.0,310.29779052734375,3.222710609436035,1.0,0.4006266334693704,0.22790073219232576,-17.064003038446643,22.526130424193635,109.4448000034725,17.773193464551106,15.19139900846561,-22.12696181564301,-39.602714414917344,15.085521323089898,-20.662598404454595,-0.25523838672182203,0.12011490851269803,0.9593882293923706,0.17026004078927712,-0.010287167191887547,0.9853454687070927,31.6736986529333,35.481489808105685,1.788210716225215,3.341052718351822
101828.2411686,12276348.0,1327453.125,1712429858816.0,-288.0,0.17657878994941711,-96.0,-0.05885959416627884,-17632.0,10.810545921325684,2717.0,3957.066650390625,2331.0,1707.6922607421875,35959.0,272.074951171875,3.6754579544067383,0.9699243605136871,0.5228079680331245,0.4158343930942173,29.811285544396814,19.15811702522094,653.5766278275748,20.0699058747679,14.5383549656078,-21.470029679573734,-39.919379293656924,15.442530193866085,-20.065998088865065,0.014451991782202528,0.008397251888363717,0.9998603032895399,0.10293784973003074,0.003931746984618599,0.9946800191310804,61.933625180489024,62.206627927421664,4.970950655183181,4.349083787074057,13768449.0,1377992.25,1712429858816.0,-800.0,0.4904966354370117,176.0,0.10790925472974777,-15696.0,9.623543739318848,2710.0,3946.871826171875,2279.0,1669.5970458984375,35650.0,310.29779052734375,3.222710609436035,1.0,0.400347600097777,0.22890871362722454,-17.183036289208893,22.51254953126606,109.89407610335297,17.773193464551106,15.19139900846561,-22.12696181564301,-39.602714414917344,15.085521323089898,-20.662598404454595,-0.25523838672182203,0.12011490851269803,0.9593882293923706,0.1688224351690144,-0.01085051499301512,0.9855867550388401,31.6736986529333,35.27258468855176,1.788210716225215,3.3224287645024893
101828.3090108,12276604.0,1327461.0,1712429858816.0,-240.0,0.1471489816904068,-48.0,-0.02942979708313942,-17648.0,10.820355415344238,2714.0,3952.697509765625,2328.0,1705.4945068359375,35961.0,271.8581848144531,3.6783883571624756,1.0,0.5228604855411657,0.41518551689951366,29.79310306619675,19.495281773292884,651.9542065329736,20.0699058747679,14.5383549656078,-21.470029679573734,-39.919379293656924,15.442530193866085,-20.065998088865065,0.014451991782202528,0.008397251888363717,0.9998603032895399,0.10316463950007125,0.004960955395743285,0.9946519220704204,61.933625180489024,62.22668417253435,4.970950655183181,4.3504381367812925,13768705.0,1378000.0,1712429858816.0,-800.0,0.4904966354370117,176.0,0.10790925472974777,-15664.0,9.603923797607422,2698.0,3929.394775390625,2253.0,1650.5494384765625,35650.0,310.29779052734375,3.222710609436035,1.0,0.39935161463758856,0.22772483870452054,-17.281360706456695,22.525459241969727,109.31716641832503,17.773193464551106,15.19139900846561,-22.12696181564301,-39.602714414917344,15.085521323089898,-20.662598404454595,-0.2569479584743047,0.12075929809589496,0.9588508427066609,0.1688224351690144,-0.01085051499301512,0.9855867550388401,31.874861649648324,35.27258468855176,1.7991201845046083,3.3224287645024893
101828.3763285,12276860.0,1327468.75,1712429858816.0,-288.0,0.17657878994941711,-16.0,-0.009809932671487331,-17568.0,10.771306037902832,2703.0,3936.677001953125,2294.0,1680.5860595703125,35960.0,271.9665222167969,3.6769230365753174,1.0,0.5224839019285374,0.41577274153928,29.978852259812065,19.526468977536393,664.8856601399252,20.0699058747679,14.5383549656078,-21.470029679573734,-39.919379293656924,15.442530193866085,-20.065998088865065,0.014451991782202528,0.008397251888363717,0.9998603032895399,0.10150247564423266,0.004800791102535155,0.9948237028955843,61.933625180489024,62.296443707350036,4.970950655183181,4.355549092113388,13768961.0,1378007.75,1712429858816.0,-768.0,0.4708767533302307,224.0,0.1373390555381775,-15712.0,9.633354187011719,2707.0,3942.502685546875,2270.0,1663.003662109375,35650.0,310.29779052734375,3.222710609436035,1.0,0.39936264262372995,0.22762848755654275,-17.27708304363087,22.532339219121585,109.30118631936682,17.773193464551106,15.19139900846561,-22.12696181564301,-39.602714414917344,15.085521323089898,-20.662598404454595,-0.2569479584743047,0.12075929809589496,0.9588508427066609,0.16887396517219727,-0.010735142791298502,0.9855791904237173,31.874861649648324,35.48323102783222,1.7991201845046083,3.3421719072551577
101828.4433703,12277116.0,1327476.5,1712429858816.0,-352.0,0.21581850945949554,-48.0,-0.02942979708313942,-17536.0,10.751686096191406,2711.0,3948.328125,2304.0,1687.912109375,35960.0,271.9665222167969,3.6769230365753174,1.0,0.5228922116518739,0.41618628311809025,30.774670117461305,19.50340415893387,672.694834373933,20.0699058747679,14.5383549656078,-21.470029679573734,-39.919379293656924,15.442530193866085,-20.065998088865065,0.015434189943174964,0.00818220496780438,0.9998474070090211,0.10150247564423266,0.004800791102535155,0.9948237028955843,62.06986440331049,62.296443707350036,4.982130981295898,4.355549092113388,13769217.0,1378015.625,1712429858816.0,-784.0,0.4806866943836212,192.0,0.11771918833255768,-15728.0,9.643163681030273,2715.0,3954.15380859375,2292.0,1679.120849609375,35649.0,310.4389343261719,3.221245527267456,1.0,0.39856406246181225,0.228281240406641,-17.353993679500224,22.377875711426263,108.86567896666375,17.773193464551106,15.19139900846561,-22.12696181564301,-39.602714414917344,15.085521323089898,-20.662598404454595,-0.25829727966886695,0.11881490209363059,0.9587312106926237,0.16887396517219727,-0.010735142791298502,0.9855791904237173,31.883115664929498,35.48323102783222,1.7996080246687618,3.3421719072551577
101828.5103304,12277372.0,1327484.375,1712429858816.0,-288.0,0.17657878994941711,-48.0,-0.02942979708313942,-17632.0,10.810545921325684,2716.0,3955.6103515625,2310.0,1692.3077392578125,35960.0,271.9665222167969,3.6769230365753174,0.9997014999389648,0.5224330217538067,0.41695830864940275,31.032571637044263,19.50698772262842,689.5326334177915,20.0699058747679,14.5383549656078,-21.470029679573734,-39.919379293656924,15.442530193866085,-20.065998088865065,0.015434189943174964,0.00818220496780438,0.9998474070090211,0.09947323739623669,0.004504304106789563,0.995030042906457,62.06986440331049,62.443918610057914,4.982130981295898,4.365866227671781,13769473.0,1378023.5,1712429858816.0,-768.0,0.4708767533302307,224.0,0.1373390555381775,-15648.0,9.594114303588867,2714.0,3952.697509765625,2300.0,1684.981689453125,35650.0,310.29779052734375,3.222710609436035,1.0,0.3984856473648174,0.22975551217323742,-17.378121572664917,22.24053748391558,108.95439426674383,17.773193464551106,15.19139900846561,-22.12696181564301,-39.602714414917344,15.085521323089898,-20.662598404454595,-0.25829727966886695,0.11881490209363059,0.9587312106926237,0.16858402757554464,-0.012856093531701751,0.9856034428234879,31.883115664929498,35.55126180063573,1.7996080246687618,3.3489910475344944
101828.5778929,12277628.0,1327492.25,1712429858816.0,-288.0,0.17657878994941711,-48.0,-0.02942979708313942,-17584.0,10.781115531921387,2716.0,3955.6103515625,2313.0,1694.5054931640625,35960.0,271.9665222167969,3.6769230365753174,0.9997014999389648,0.5219587522772225,0.4167822091892821,30.086070829065534,19.347944063823586,680.0830487052921,20.0699058747679,14.5383549656078,-21.470029679573734,-39.919379293656924,15.442530193866085,-20.065998088865065,0.014290923738358599,0.007900675031148717,0.9998666655273376,0.09947323739623669,0.004504304106789563,0.995030042906457,61.98163929703916,62.443918610057914,4.974910479968181,4.365866227671781,13769729.0,1378031.25,1712429858816.0,-800.0,0.4904966354370117,208.0,0.12752912938594818,-15616.0,9.574494361877441,2699.0,3930.851318359375,2269.0,1662.2711181640625,35650.0,310.29779052734375,3.222710609436035,1.0,0.397785682625027,0.23008077484312028,-17.44520829330094,22.131855431575378,108.57125854983482,17.773193464551106,15.19139900846561,-22.12696181564301,-39.602714414917344,15.085521323089898,-20.662598404454595,-0.2594805394755255,0.11749305054774058,0.9585745837995479,0.16858402757554464,-0.012856093531701751,0.9856034428234879,31.76620690494391,35.55126180063573,1.7926482381793178,3.3489910475344944
101828.6455329,12277884.0,1327500.0,1712429858816.0,-304.0,0.18638871610164642,-96.0,-0.05885959416627884,-17616.0,10.800735473632812,2703.0,3936.677001953125,2295.0,1681.3187255859375,35960.0,271.9665222167969,3.6769230365753174,0.9997014999389648,0.5220348777256973,0.41693715497725126,30.237053881789024,19.295256942084563,681.6026789010526,20.0699058747679,14.5383549656078,-21.470029679573734,-39.919379293656924,15.442530193866085,-20.065998088865065,0.014473470197782374,0.007724185915893784,0.9998654187501289,0.09947323739623669,0.004504304106789563,0.995030042906457,62.055658289412854,62.443918610057914,4.980981009211048,4.365866227671781,13769985.0,1378039.0,1712429858816.0,-800.0,0.4904966354370117,224.0,0.1373390555381775,-15632.0,9.584303855895996,2707.0,3942.502685546875,2278.0,1668.864501953125,35649.0,310.4389343261719,3.221245527267456,1.0,0.3981111225661159,0.22983819119436988,-17.29873588768878,22.044600712415807,108.02707079320862,17.773193464551106,15.19139900846561,-22.12696181564301,-39.602714414917344,15.085521323089898,-20.662598404454595,-0.2594805394755255,0.11749305054774058,0.9585745837995479,0.170360514063392,-0.013744067354001716,0.9852859462413057,31.76620690494391,35.62648267362035,1.7926482381793178,3.3557127492202454
101828.7133254,12278140.0,1327507.75,1712429858816.0,-224.0,0.1373390555381775,-144.0,-0.08828939497470856,-17664.0,10.83016586303711,2711.0,3948.328125,2297.0,1682.783935546875,35960.0,271.9665222167969,3.6769230365753174,0.9871185719966888,0.5221083604539583,0.41683282997940263,30.198163414528572,19.28341991831897,678.906697749532,20.0699058747679,14.5383549656078,-21.470029679573734,-39.919379293656924,15.442530193866085,-20.065998088865065,0.014473470197782374,0.007724185915893784,0.9998654187501289,0.09979847345746937,0.004517489100588603,0.9949974155683948,62.055658289412854,62.4487672309454,4.980981009211048,4.366284900332438,13770241.0,1378046.875,1712429858816.0,-768.0,0.4708767533302307,224.0,0.1373390555381775,-15616.0,9.574494361877441,2704.0,3938.13330078125,2264.0,1658.6080322265625,35649.0,310.4389343261719,3.221245527267456,1.0,0.3982156867087627,0.22981973919755105,-17.288702505555545,22.05759630620903,108.08404316769429,17.773193464551106,15.19139900846561,-22.12696181564301,-39.602714414917344,15.085521323089898,-20.662598404454595,-0.2593036966582318,0.11764404564125575,0.9586039179058959,0.170360514063392,-0.013744067354001716,0.9852859462413057,31.678458229117172,35.62648267362035,1.7879964935673933,3.3557127492202454
101828.7802474,12278396.0,1327515.625,1712429858816.0,-256.0,0.1569589227437973,-96.0,-0.05885959416627884,-17520.0,10.741876602172852,2718.0,3958.523193359375,2320.0,1699.6336669921875,35960.0,271.9665222167969,3.6769230365753174,0.9871185719966888,0.5226493660803633,0.4173516646800496,31.282112647691655,19.266024064875964,689.7241439617828,20.0699058747679,14.5383549656078,-21.470029679573734,-39.919379293656924,15.442530193866085,-20.065998088865065,0.015775571757802535,0.007488859682873491,0.9998475125319681,0.09979847345746937,0.004517489100588603,0.9949974155683948,62.23603152085835,62.4487672309454,4.995761811899593,4.366284900332438,13770497.0,1378054.75,1712429858816.0,-768.0,0.4708767533302307,176.0,0.10790925472974777,-15648.0,9.594114303588867,2689.0,3916.287109375,2230.0,1633.6995849609375,35650.0,310.29779052734375,3.222710609436035,1.0,0.3978803938520056,0.2310858191473779,-17.431417453501965,22.033992472655044,108.61345785870981,17.773193464551106,15.19139900846561,-22.12696181564301,-39.602714414917344,15.085521323089898,-20.662598404454595,-0.2593036966582318,0.11764404564125575,0.9586039179058959,0.16863076142098718,-0.014504776484973558,0.9855725634176813,31.678458229117172,35.349930162740336,1.7879964935673933,3.3296185210227147
101828.8485032,12278652.0,1327523.5,1712429858816.0,-256.0,0.1569589227437973,-96.0,-0.05885959416627884,-17520.0,10.741876602172852,2718.0,3958.523193359375,2319.0,1698.901123046875,35960.0,271.9665222167969,3.6769230365753174,1.0,0.5114852603640425,0.43273681172965317,11.085222283287607,5.658119441366381,405.7814378312057,-312.38996838351017,-90.56954034748007,36.85862948962228,nan,nan,nan,0.6469503813335956,0.19245531957769288,0.7378456166831668,nan,nan,nan,62.23603152085835,nan,4.995761811899593,nan,13770753.0,1378062.5,1712429858816.0,-784.0,0.4806866943836212,192.0,0.11771918833255768,-15744.0,9.652973175048828,2698.0,3929.394775390625,2231.0,1634.4322509765625,35649.0,310.4389343261719,3.221245527267456,1.0,0.3990670576621388,0.23069685533572293,-17.317188207260926,22.20140107784118,109.26717269760604,17.773193464551106,15.19139900846561,-22.12696181564301,-39.602714414917344,15.085521323089898,-20.662598404454595,-0.25729450176057006,0.11963467617509323,0.9588988912394573,0.16863076142098718,-0.014504776484973558,0.9855725634176813,31.521051794007736,35.349930162740336,1.7792237007003244,3.3296185210227147
101828.9163208,12278908.0,1327531.25,1712429858816.0,-272.0,0.1667688488960266,-96.0,-0.05885959416627884,-17568.0,10.771306037902832,2702.0,3935.220458984375,2297.0,1682.783935546875,35960.0,271.9665222167969,3.6769230365753174,0.9768693447113037,0.5222605270726326,0.4184594909824253,31.125722889896387,18.738203400694786,695.9374454011523,20.0699058747679,14.5383549656078,-21.470029679573734,-39.919379293656924,15.442530193866085,-20.065998088865065,0.015408695661648512,0.005853258937292992,0.9998641465008233,0.09873861193481542,0.004580480466902748,0.9951028618750317,62.182546700080756,62.37225614458239,4.991657866684772,4.360949756323969,13771009.0,1378070.25,1712429858816.0,-752.0,0.4610668420791626,176.0,0.10790925472974777,-15632.0,9.584303855895996,2708.0,3943.958984375,2254.0,1651.2821044921875,35649.0,310.4389343261719,3.221245527267456,1.0,0.3988641409798453,0.23071705611189086,-17.41020161227913,22.271238286344158,109.61604314309793,17.773193464551106,15.19139900846561,-22.12696181564301,-39.602714414917344,15.085521323089898,-20.662598404454595,-0.25729450176057006,0.11963467617509323,0.9588988912394573,0.16751154781365582,-0.0137370307544665,0.9857744038750065,31.521051794007736,35.331212348896365,1.7792237007003244,3.32773633884156
101828.9832915,12279164.0,1327539.0,1712429858816.0,-208.0,0.12752912938594818,-96.0,-0.05885959416627884,-17600.0,10.790925979614258,2712.0,3949.78466796875,2289.0,1676.923095703125,35959.0,272.074951171875,3.6754579544067383,0.9677004516124725,0.5225277963220416,0.4185428011229242,30.963894246901347,18.41087440913538,685.69715734427,20.0699058747679,14.5383549656078,-21.470029679573734,-39.919379293656924,15.442530193866085,-20.065998088865065,0.015408695661648512,0.005853258937292992,0.9998641465008233,0.09992565121195925,0.003806884712110037,0.9949876239726073,62.182546700080756,62.63206893330298,4.991657866684772,4.379340346019836,13771265.0,1378078.125,1712429858816.0,-720.0,0.4414469599723816,160.0,0.09809932857751846,-15680.0,9.613734245300293,2713.0,3951.240966796875,2278.0,1668.864501953125,35649.0,310.4389343261719,3.221245527267456,1.0,0.39760353880168914,0.2318672487131247,-17.530794181140852,22.01675915789546,108.92813972739285,17.773193464551106,15.19139900846561,-22.12696181564301,-39.602714414917344,15.085521323089898,-20.662598404454595,-0.25942116013064764,0.11638733296566553,0.9587255344474809,0.16751154781365582,-0.0137370307544665,0.9857744038750065,31.751013337326757,35.331212348896365,1.7920880818254346,3.32773633884156
101829.051217,12279420.0,1327546.875,1712429858816.0,-272.0,0.1667688488960266,-64.0,-0.039239730685949326,-17584.0,10.781115531921387,2698.0,3929.394775390625,2274.0,1665.93408203125,35961.0,271.8581848144531,3.6783883571624756,0.9865553975105286,0.5226795021602119,0.41853184729524684,31.269805327866393,18.49938357645695,688.7312938336743,20.0699058747679,14.5383549656078,-21.470029679573734,-39.919379293656924,15.442530193866085,-20.065998088865065,0.015775059398997628,0.006060770284455726,0.9998571970859226,0.09992565121195925,0.003806884712110037,0.9949876239726073,62.262342761375066,62.63206893330298,4.998180072040757,4.379340346019836,13771521.0,1378086.0,1712429858816.0,-768.0,0.4708767533302307,224.0,0.1373390555381775,-15728.0,9.643163681030273,2714.0,3952.697509765625,2291.0,1678.3883056640625,35649.0,310.4389343261719,3.221245527267456,1.0,0.39772069525355724,0.23154027561053114,-17.47950255619189,22.012139222311625,108.73779378788157,17.773193464551106,15.19139900846561,-22.12696181564301,-39.602714414917344,15.085521323089898,-20.662598404454595,-0.25942116013064764,0.11638733296566553,0.9587255344474809,0.16812903461775588,-0.013661470031420903,0.9856703262019622,31.751013337326757,35.53223749359918,1.7920880818254346,3.3472673801042365
101829.1182499,12279676.0,1327554.75,1712429858816.0,-320.0,0.19619865715503693,-16.0,-0.009809932671487331,-17600.0,10.790925979614258,2717.0,3957.066650390625,2293.0,1679.853515625,35959.0,272.074951171875,3.6754579544067383,0.9785596132278442,0.5225612340968345,0.41939961771987,31.33011573356213,18.066989339139518,692.9905810919731,20.0699058747679,14.5383549656078,-21.470029679573734,-39.919379293656924,15.442530193866085,-20.065998088865065,0.015775059398997628,0.006060770284455726,0.9998571970859226,0.09940860823730527,0.002539743910669025,0.9950434554878447,62.262342761375066,62.626100578626044,4.998180072040757,4.379174570917077,13771777.0,1378093.75,1712429858816.0,-816.0,0.5003065466880798,240.0,0.1471489816904068,-15728.0,9.643163681030273,2698.0,3929.394775390625,2262.0,1657.142822265625,35650.0,310.29779052734375,3.222710609436035,1.0,0.39778919324326506,0.23208392850990578,-17.47250180858332,21.963629529870072,108.78337019767079,17.773193464551106,15.19139900846561,-22.12696181564301,-39.602714414917344,15.085521323089898,-20.662598404454595,-0.25929863439720197,0.11563323552608239,0.9588499220636749,0.16812903461775588,-0.013661470031420903,0.9856703262019622,31.691818849245816,35.53223749359918,1.788706171897993,3.3472673801042365
101829.185281,12279932.0,1327562.5,1712429858816.0,-240.0,0.1471489816904068,16.0,0.009809932671487331,-17584.0,10.781115531921387,2703.0,3936.677001953125,2291.0,1678.3883056640625,35960.0,271.9665222167969,3.6769230365753174,0.980546772480011,0.5220223555159615,0.41956660801751167,30.249116627520266,17.682158308557547,682.2256756915122,20.0699058747679,14.5383549656078,-21.470029679573734,-39.919379293656924,15.442530193866085,-20.065998088865065,0.014473176620571172,0.005100516485292425,0.9998822490123989,0.09940860823730527,0.002539743910669025,0.9950434554878447,62.15124760264624,62.626100578626044,4.989318877836615,4.379174570917077,13772033.0,1378101.5,1712429858816.0,-816.0,0.5003065466880798,176.0,0.10790925472974777,-15696.0,9.623543739318848,2712.0,3949.78466796875,2275.0,1666.6666259765625,35648.0,310.5802001953125,3.219780206680298,1.0,0.3975815558083949,0.23339481966187603,-17.557606783548398,21.889705976723327,109.09841264525312,17.773193464551106,15.19139900846561,-22.12696181564301,-39.602714414917344,15.085521323089898,-20.662598404454595,-0.25929863439720197,0.11563323552608239,0.9588499220636749,0.16710623911225447,-0.015001237431993192,0.9858247652221297,31.691818849245816,35.473450078321996,1.788706171897993,3.3415876011602488
101829.2532093,12280188.0,1327570.25,1712429858816.0,-256.0,0.1569589227437973,-32.0,-0.019619865342974663,-17552.0,10.761495590209961,2711.0,3948.328125,2291.0,1678.3883056640625,35959.0,272.074951171875,3.6754579544067383,0.9756569862365723,0.5221321958018164,0.4194964814988168,30.189824934404456,17.62045049637807,678.1721202433429,20.0699058747679,14.5383549656078,-21.470029679573734,-39.919379293656924,15.442530193866085,-20.065998088865065,0.014473176620571172,0.005100516485292425,0.9998822490123989,0.0998954545080878,0.0024077688005022155,0.9949950255242616,62.15124760264624,62.791882402511455,4.989318877836615,4.390781260727041,13772289.0,1378109.375,1712429858816.0,-832.0,0.5101165175437927,176.0,0.10790925472974777,-15632.0,9.584303855895996,2713.0,3951.240966796875,2291.0,1678.3883056640625,35649.0,310.4389343261719,3.221245527267456,1.0,0.3983110379074578,0.23345360066471388,-17.487433564880305,21.961485721320415,109.50689855862058,17.773193464551106,15.19139900846561,-22.12696181564301,-39.602714414917344,15.085521323089898,-20.662598404454595,-0.25806033640980164,0.11639796871500548,0.9590914323728893,0.16710623911225447,-0.015001237431993192,0.9858247652221297,31.79453993953823,35.473450078321996,1.7946824611193342,3.3415876011602488
101829.3203128,12280444.0,1327578.125,1712429858816.0,-224.0,0.1373390555381775,0.0,0.0,-17520.0,10.741876602172852,2694.0,3923.5693359375,2264.0,1658.6080322265625,35961.0,271.8581848144531,3.6783883571624756,0.9756569862365723,0.5223536801884413,0.4195285019890692,30.627732233973173,17.713835251923868,682.521053381088,20.0699058747679,14.5383549656078,-21.470029679573734,-39.919379293656924,15.442530193866085,-20.065998088865065,0.0150073597556386,0.00531894075539674,0.999873235976644,0.0998954545080878,0.0024077688005022155,0.9949950255242616,62.280281021821146,62.791882402511455,4.999898187580119,4.390781260727041,13772545.0,1378117.25,1712429858816.0,-784.0,0.4806866943836212,176.0,0.10790925472974777,-15648.0,9.594114303588867,2714.0,3952.697509765625,2295.0,1681.3187255859375,35648.0,310.5802001953125,3.219780206680298,1.0,0.3982220585229873,0.23309288283604446,-17.53149628774886,22.033444341860594,109.67214683441159,17.773193464551106,15.19139900846561,-22.12696181564301,-39.602714414917344,15.085521323089898,-20.662598404454595,-0.25806033640980164,0.11639796871500548,0.9590914323728893,0.1665780374201199,-0.014055706079790675,0.9859280879333238,31.79453993953823,35.37729087693101,1.7946824611193342,3.332536456651096
101829.3882045,12280700.0,1327586.0,1712429858816.0,-240.0,0.1471489816904068,-48.0,-0.02942979708313942,-17616.0,10.800735473632812,2715.0,3954.15380859375,2290.0,1677.6556396484375,35959.0,272.074951171875,3.6754579544067383,0.9995549619197845,0.5223322791943712,0.4196790031810482,30.637898825771693,17.63994215690495,683.2764784563161,20.0699058747679,14.5383549656078,-21.470029679573734,-39.919379293656924,15.442530193866085,-20.065998088865065,0.0150073597556386,0.00531894075539674,0.999873235976644,0.09980183875203542,0.0021901396398241835,0.9950049227366018,62.280281021821146,62.84021905750915,4.999898187580119,4.3942854958743665,13772801.0,1378125.0,1712429858816.0,-752.0,0.4610668420791626,192.0,0.11771918833255768,-15712.0,9.633354187011719,2701.0,3933.76416015625,2274.0,1665.93408203125,35649.0,310.4389343261719,3.221245527267456,1.0,0.39843074288140856,0.2333315545918514,-17.511166099754014,22.031199906458816,109.79298935920986,17.773193464551106,15.19139900846561,-22.12696181564301,-39.602714414917344,15.085521323089898,-20.662598404454595,-0.25770302707495923,0.11627616016934393,0.9592022750247603,0.1665780374201199,-0.014055706079790675,0.9859280879333238,31.737804813622475,35.37729087693101,1.7913801239395837,3.332536456651096
101829.4553308,12280956.0,1327593.75,1712429858816.0,-288.0,0.17657878994941711,-32.0,-0.019619865342974663,-17600.0,10.790925979614258,2705.0,3939.58984375,2287.0,1675.4578857421875,35959.0,272.074951171875,3.6754579544067383,0.9995549619197845,0.5223780993561514,0.41933653578445607,30.727005160643294,17.874967476726603,684.1287674162925,20.0699058747679,14.5383549656078,-21.470029679573734,-39.919379293656924,15.442530193866085,-20.065998088865065,0.015120369015475518,0.00597496743183248,0.999867828367842,0.09980183875203542,0.0021901396398241835,0.9950049227366018,62.01825861543006,62.84021905750915,4.978170840949269,4.3942854958743665,13773057.0,1378132.75,1712429858816.0,-752.0,0.4610668420791626,256.0,0.1569589227437973,-15648.0,9.594114303588867,2706.0,3941.046142578125,2269.0,1662.2711181640625,35649.0,310.4389343261719,3.221245527267456,1.0,0.3983255616078703,0.23437601062729418,-17.55155035978366,21.950604653602635,109.9429090602788,17.773193464551106,15.19139900846561,-22.12696181564301,-39.602714414917344,15.085521323089898,-20.662598404454595,-0.25770302707495923,0.11627616016934393,0.9592022750247603,0.16609650627939407,-0.015362879368803206,0.9859898237503664,31.737804813622475,35.28345725615385,1.7913801239395837,3.3238342919766106
101829.5225257,12281212.0,1327601.5,1712429858816.0,-272.0,0.1667688488960266,-128.0,-0.07847946137189865,-17584.0,10.781115531921387,2703.0,3936.677001953125,2276.0,1667.3992919921875,35960.0,271.9665222167969,3.6769230365753174,0.9995549619197845,0.5225291658785028,0.4197916956250345,31.032979705638237,17.671373571832227,687.211841914715,20.0699058747679,14.5383549656078,-21.470029679573734,-39.919379293656924,15.442530193866085,-20.065998088865065,0.015481806508359,0.005365739425310869,0.9998657522425987,0.09980183875203542,0.0021901396398241835,0.9950049227366018,62.12016450896452,62.84021905750915,4.986689512377898,4.3942854958743665,13773313.0,1378140.625,1712429858816.0,-720.0,0.4414469599723816,176.0,0.10790925472974777,-15680.0,9.613734245300293,2704.0,3938.13330078125,2264.0,1658.6080322265625,35648.0,310.5802001953125,3.219780206680298,1.0,0.39850812399212476,0.2350594526261609,-17.53337575223751,21.899313893393796,110.05572101658456,17.773193464551106,15.19139900846561,-22.12696181564301,-39.602714414917344,15.085521323089898,-20.662598404454595,-0.25738490368866124,0.11544000862215127,0.9593886677267435,0.16609650627939407,-0.015362879368803206,0.9859898237503664,31.69071190744523,35.28345725615385,1.7889087985465775,3.3238342919766106
101829.5902669,12281468.0,1327609.375,1712429858816.0,-288.0,0.17657878994941711,-96.0,-0.05885959416627884,-17584.0,10.781115531921387,2718.0,3958.523193359375,2307.0,1690.10986328125,35959.0,272.074951171875,3.6754579544067383,0.9889763593673706,0.5227323992759147,0.42005719358292404,30.909260165916844,17.31014452944244,679.5326101635703,20.0699058747679,14.5383549656078,-21.470029679573734,-39.919379293656924,15.442530193866085,-20.065998088865065,0.015481806508359,0.005365739425310869,0.9998657522425987,0.10070531707222177,0.0012437511548410289,0.9949155201304523,62.12016450896452,62.900514328042775,4.986689512377898,4.398688352309727,13773569.0,1378148.5,1712429858816.0,-768.0,0.4708767533302307,176.0,0.10790925472974777,-15648.0,9.594114303588867,2721.0,3962.892333984375,2300.0,1684.981689453125,35647.0,310.7215881347656,3.2183151245117188,1.0,0.3990625721343046,0.23394184965027198,-17.286974519332553,21.830862777861114,109.13295002828497,17.773193464551106,15.19139900846561,-22.12696181564301,-39.602714414917344,15.085521323089898,-20.662598404454595,-0.25738490368866124,0.11544000862215127,0.9593886677267435,0.16905446172855887,-0.015701952899444954,0.9854816272487332,31.69071190744523,35.70492668092385,1.7889087985465775,3.363288400271581
101829.6583194,12281724.0,1327617.25,1712429858816.0,-240.0,0.1471489816904068,-80.0,-0.04904966428875923,-17616.0,10.800735473632812,2715.0,3954.15380859375,2317.0,1697.4359130859375,35959.0,272.074951171875,3.6754579544067383,0.9878351092338562,0.5227790801391945,0.420632584804866,31.006036741219848,16.979913935272876,680.5393800540056,20.0699058747679,14.5383549656078,-21.470029679573734,-39.919379293656924,15.442530193866085,-20.065998088865065,0.015590412189680021,0.004416961838087654,0.999868706128898,0.10070531707222177,0.0012437511548410289,0.9949155201304523,62.334604635813314,62.900514328042775,5.004586892720933,4.398688352309727,13773825.0,1378156.25,1712429858816.0,-784.0,0.4806866943836212,176.0,0.10790925472974777,-15728.0,9.643163681030273,2700.0,3932.3076171875,2269.0,1662.2711181640625,35649.0,310.4389343261719,3.221245527267456,1.0,0.39997743571099725,0.23388395668485518,-17.19788742780822,21.934410965908892,109.64410609120577,17.773193464551106,15.19139900846561,-22.12696181564301,-39.602714414917344,15.085521323089898,-20.662598404454595,-0.25583059498235844,0.11660186160682398,0.9596638539305288,0.16905446172855887,-0.015701952899444954,0.9854816272487332,31.730862124013083,35.70492668092385,1.791651657351868,3.363288400271581
101829.7262786,12281980.0,1327625.0,1712429858816.0,-304.0,0.18638871610164642,-64.0,-0.039239730685949326,-17680.0,10.839975357055664,2701.0,3933.76416015625,2284.0,1673.2601318359375,35958.0,272.1834411621094,3.67399263381958,0.9749696850776672,0.5229220681638284,0.4207745099356661,30.920400238555814,16.76064969330381,675.2362673723148,20.0699058747679,14.5383549656078,-21.470029679573734,-39.919379293656924,15.442530193866085,-20.065998088865065,0.015590412189680021,0.004416961838087654,0.999868706128898,0.10134006248009725,0.0006583303979897688,0.9948516262928945,62.334604635813314,63.06980678380296,5.004586892720933,4.410425388779812,13774081.0,1378164.0,1712429858816.0,-768.0,0.4708767533302307,192.0,0.11771918833255768,-15696.0,9.623543739318848,2706.0,3941.046142578125,2267.0,1660.805908203125,35648.0,310.5802001953125,3.219780206680298,1.0,0.40016046902734426,0.23416954730437467,-17.112411991171456,21.838570839436613,109.32094275408724,17.773193464551106,15.19139900846561,-22.12696181564301,-39.602714414917344,15.085521323089898,-20.662598404454595,-0.25583059498235844,0.11660186160682398,0.9596638539305288,0.17008847817191158,-0.01688900436661156,0.9852840560593011,31.730862124013083,35.66021710586192,1.791651657351868,3.3588777337817506
101829.794337,12282236.0,1327632.75,1712429858816.0,-304.0,0.18638871610164642,-64.0,-0.039239730685949326,-17712.0,10.85959529876709,2704.0,3938.13330078125,2278.0,1668.864501953125,35960.0,271.9665222167969,3.6769230365753174,0.9761109352111816,0.522732999873544,0.42076115628092703,30.54855406610295,16.678282887370912,671.5979744447411,20.0699058747679,14.5383549656078,-21.470029679573734,-39.919379293656924,15.442530193866085,-20.065998088865065,0.015134192145932557,0.004206348662879613,0.9998766238186673,0.10134006248009725,0.0006583303979897688,0.9948516262928945,62.22464104268072,63.06980678380296,4.9955905194041375,4.410425388779812,13774337.0,1378171.875,1712429858816.0,-816.0,0.5003065466880798,192.0,0.11771918833255768,-15648.0,9.594114303588867,2698.0,3929.394775390625,2252.0,1649.81689453125,35649.0,310.4389343261719,3.221245527267456,1.0,0.40122187008252624,0.2336799761513204,-17.008302847045954,22.002829711389143,109.91028190243219,17.773193464551106,15.19139900846561,-22.12696181564301,-39.602714414917344,15.085521323089898,-20.662598404454595,-0.25402878954759006,0.11859942013924196,0.9598976776842529,0.17008847817191158,-0.01688900436661156,0.9852840560593011,31.84673053687543,35.66021710586192,1.7981133162316532,3.3588777337817506
101829.8612307,12282492.0,1327640.625,1712429858816.0,-352.0,0.21581850945949554,-32.0,-0.019619865342974663,-17664.0,10.83016586303711,2716.0,3955.6103515625,2292.0,1679.120849609375,35958.0,272.1834411621094,3.67399263381958,0.9766895771026611,0.5229145742834698,0.4207529919324784,30.44829139776864,16.522099703374604,665.1020576778283,20.0699058747679,14.5383549656078,-21.470029679573734,-39.919379293656924,15.442530193866085,-20.065998088865065,0.015134192145932557,0.004206348662879613,0.9998766238186673,0.10214397954222365,0.0002500330223041243,0.9947695938893416,62.22464104268072,62.96797968494317,4.9955905194041375,4.403278912213506,13774593.0,1378179.75,1712429858816.0,-768.0,0.4708767533302307,208.0,0.12752912938594818,-15712.0,9.633354187011719,2712.0,3949.78466796875,2270.0,1663.003662109375,35648.0,310.5802001953125,3.219780206680298,1.0,0.4009735586220044,0.23384659897963822,-17.119929272339753,22.071295204591486,110.33468918719521,17.773193464551106,15.19139900846561,-22.12696181564301,-39.602714414917344,15.085521323089898,-20.662598404454595,-0.25402878954759006,0.11859942013924196,0.9598976776842529,0.1687417918324219,-0.016192707540149925,0.9855272720283812,31.84673053687543,35.33633644002987,1.7981133162316532,3.328702615404911
101829.9284127,12282748.0,1327648.5,1712429858816.0,-336.0,0.20600858330726624,-48.0,-0.02942979708313942,-17680.0,10.839975357055664,2719.0,3959.9794921875,2325.0,1703.2967529296875,35959.0,272.074951171875,3.6754579544067383,0.9766895771026611,0.5232454756344945,0.420224043877516,31.090952911181834,16.99892864815715,671.289244180197,20.0699058747679,14.5383549656078,-21.470029679573734,-39.919379293656924,15.442530193866085,-20.065998088865065,0.01593657675647914,0.005540769776167749,0.99985765256439,0.10214397954222365,0.0002500330223041243,0.9947695938893416,62.30422300497604,62.96797968494317,5.001862465551228,4.403278912213506,13774849.0,1378187.5,1712429858816.0,-784.0,0.4806866943836212,208.0,0.12752912938594818,-15696.0,9.623543739318848,2699.0,3930.851318359375,2259.0,1654.945068359375,35648.0,310.5802001953125,3.219780206680298,1.0,0.40075116609273137,0.23402098024423756,-17.141751968922776,22.029083026037366,110.21084592506489,17.773193464551106,15.19139900846561,-22.12696181564301,-39.602714414917344,15.085521323089898,-20.662598404454595,-0.2544061485446913,0.11807001293459057,0.9598630025312372,0.1687417918324219,-0.016192707540149925,0.9855272720283812,31.789359445060647,35.33633644002987,1.7948352120121371,3.328702615404911
101829.9962614,12283004.0,1327656.25,1712429858816.0,-320.0,0.19619865715503693,-64.0,-0.039239730685949326,-17696.0,10.849785804748535,2705.0,3939.58984375,2291.0,1678.3883056640625,35958.0,272.1834411621094,3.67399263381958,0.9880371987819672,0.5234114405436029,0.42046261014493314,30.99133848535299,16.702871062116827,665.2878063668825,20.0699058747679,14.5383549656078,-21.470029679573734,-39.919379293656924,15.442530193866085,-20.065998088865065,0.01593657675647914,0.005540769776167749,0.99985765256439,0.10288016213018181,-0.0005602127802160476,0.9946936002617632,62.30422300497604,63.096872470523046,5.001862465551228,4.412621894485445,13775105.0,1378195.25,1712429858816.0,-752.0,0.4610668420791626,192.0,0.11771918833255768,-15744.0,9.652973175048828,2714.0,3952.697509765625,2282.0,1671.794921875,35647.0,310.7215881347656,3.2183151245117188,1.0,0.40029169783252216,0.23383748069659716,-17.354494772856572,22.212774144799035,111.01896911812682,17.773193464551106,15.19139900846561,-22.12696181564301,-39.602714414917344,15.085521323089898,-20.662598404454595,-0.2544061485446913,0.11807001293459057,0.9598630025312372,0.16619519952140813,-0.014090455631025206,0.9859921981010548,31.789359445060647,35.34997680121588,1.7948352120121371,3.330442980251398
101830.0643936,12283260.0,1327664.0,1712429858816.0,-304.0,0.18638871610164642,-64.0,-0.039239730685949326,-17664.0,10.83016586303711,2712.0,3949.78466796875,2304.0,1687.912109375,35959.0,272.074951171875,3.6754579544067383,0.9880371987819672,0.5234679257936551,0.4207706171465412,31.103711676871413,16.544231821073296,666.3979932485493,20.0699058747679,14.5383549656078,-21.470029679573734,-39.919379293656924,15.442530193866085,-20.065998088865065,0.016070761980958956,0.005072263002272052,0.9998579912954576,0.10288016213018181,-0.0005602127802160476,0.9946936002617632,62.259326365174495,63.096872470523046,4.998292936401874,4.412621894485445,13775361.0,1378203.125,1712429858816.0,-736.0,0.4512569010257721,160.0,0.09809932857751846,-15712.0,9.633354187011719,2700.0,3932.3076171875,2259.0,1654.945068359375,35649.0,310.4389343261719,3.221245527267456,1.0,0.400801506450889,0.23359204594706806,-17.30439438339122,22.294616886152816,111.30937517649497,17.773193464551106,15.19139900846561,-22.12696181564301,-39.602714414917344,15.085521323089898,-20.662598404454595,-0.2535380147726013,0.11904831259080365,0.9599718612201352,0.16619519952140813,-0.014090455631025206,0.9859921981010548,31.791269784317937,35.34997680121588,1.7951069933715962,3.330442980251398
101830.1313742,12283516.0,1327671.875,1712429858816.0,-176.0,0.10790925472974777,-96.0,-0.05885959416627884,-17568.0,10.771306037902832,2695.0,3925.025634765625,2260.0,1655.6776123046875,35959.0,272.074951171875,3.6754579544067383,0.9925710558891296,0.5235393350164534,0.42053412592938966,31.065537955502855,16.62588428734198,663.9347458019784,20.0699058747679,14.5383549656078,-21.470029679573734,-39.919379293656924,15.442530193866085,-20.065998088865065,0.016070761980958956,0.005072263002272052,0.9998579912954576,0.10319386540704364,-0.0003061868206172478,0.9946612148827277,62.259326365174495,63.002319407000364,4.998292936401874,4.405949441327129,13775617.0,1378211.0,1712429858816.0,-768.0,0.4708767533302307,176.0,0.10790925472974777,-15632.0,9.584303855895996,2722.0,3964.3486328125,2301.0,1685.7142333984375,35647.0,310.7215881347656,3.2183151245117188,1.0,0.40112423942257064,0.23322693767638103,-17.15854861248415,22.220842808799965,110.75405954732966,17.773193464551106,15.19139900846561,-22.12696181564301,-39.602714414917344,15.085521323089898,-20.662598404454595,-0.2535380147726013,0.11904831259080365,0.9599718612201352,0.16793608140297336,-0.014752324489822222,0.9856874968696524,31.791269784317937,35.49265302137571,1.7951069933715962,3.344050380969432
101830.1983723,12283772.0,1327679.75,1712429858816.0,-240.0,0.1471489816904068,-80.0,-0.04904966428875923,-17552.0,10.761495590209961,2715.0,3954.15380859375,2303.0,1687.179443359375,35959.0,272.074951171875,3.6754579544067383,0.9925710558891296,0.5235110254758085,0.4205568847432789,31.01055201731701,16.5989572494196,663.4087939530835,20.0699058747679,14.5383549656078,-21.470029679573734,-39.919379293656924,15.442530193866085,-20.065998088865065,0.016002259769907802,0.004997432147584586,0.9998594668023035,0.10319386540704364,-0.0003061868206172478,0.9946612148827277,62.49747444280536,63.002319407000364,5.017960143354702,4.405949441327129,13775873.0,1378218.75,1712429858816.0,-800.0,0.4904966354370117,176.0,0.10790925472974777,-15664.0,9.603923797607422,2697.0,3927.9384765625,2264.0,1658.6080322265625,35649.0,310.4389343261719,3.221245527267456,1.0,0.40088358448267203,0.23356223827972822,-17.183242852994887,22.16100873470403,110.62853710665794,17.77262139321877,15.206138459426828,-22.13073547303001,-39.602714414917344,15.085521323089898,-20.662598404454595,-0.25394793130819615,0.11815736949172895,0.9599735851673641,0.16793608140297336,-0.014752324489822222,0.9856874968696524,31.76967953997704,35.49265302137571,1.7941095207283801,3.344050380969432
101830.2653026,12284028.0,1327687.5,1712429858816.0,-256.0,0.1569589227437973,-96.0,-0.05885959416627884,-17552.0,10.761495590209961,2704.0,3938.13330078125,2273.0,1665.201416015625,35957.0,272.29205322265625,3.672527551651001,1.0,0.5235336496012032,0.42093679058650557,30.992406407536315,16.347643384095313,662.5073437717892,20.0699058747679,14.5383549656078,-21.470029679573734,-39.919379293656924,15.442530193866085,-20.065998088865065,0.016002259769907802,0.004997432147584586,0.9998594668023035,0.10329707960566795,-0.0010336125013357788,0.9946500113055534,62.49747444280536,63.09210986673616,5.017960143354702,4.412429690196677,13776129.0,1378226.5,1712429858816.0,-784.0,0.4806866943836212,160.0,0.09809932857751846,-15696.0,9.623543739318848,2708.0,3943.958984375,2270.0,1663.003662109375,35648.0,310.5802001953125,3.219780206680298,1.0,0.4003178514232598,0.23442899926806682,-17.43816545842087,22.26443237126891,111.59727022686744,17.77262139321877,15.206138459426828,-22.13073547303001,-39.602714414917344,15.085521323089898,-20.662598404454595,-0.25394793130819615,0.11815736949172895,0.9599735851673641,0.16490092345748752,-0.013964049486884178,0.9862112809965193,31.76967953997704,35.09674060415134,1.7941095207283801,3.306594370583883
