timestamp,Timestamp RAW (no units)_007,Timestamp CAL (mSecs)_007,System Timestamp CAL (mSecs)_007,Wide Range Accelerometer X RAW (no units)_007,Wide Range Accelerometer X CAL (m/(sec ^2))_007,Wide Range Accelerometer Y RAW (no units)_007,Wide Range Accelerometer Y CAL (m/(sec ^2))_007,Wide Range Accelerometer Z RAW (no units)_007,Wide Range Accelerometer Z CAL (m/(sec ^2))_007,VSenseBatt RAW (no units)_007,VSenseBatt CAL (m Volts)_007,Internal ADC A13 RAW (no units)_007,Internal ADC A13 CAL (m Volts)_007,GSR RAW (no units)_007,GSR CAL (kOhms)_007,GSR Conductance CAL (u Siemens)_007,confidence_007,norm_pos_x_007,norm_pos_y_007,gaze_point_3d_x_007,gaze_point_3d_y_007,gaze_point_3d_z_007,eye_center0_3d_x_007,eye_center0_3d_y_007,eye_center0_3d_z_007,eye_center1_3d_x_007,eye_center1_3d_y_007,eye_center1_3d_z_007,gaze_normal0_x_007,gaze_normal0_y_007,gaze_normal0_z_007,gaze_normal1_x_007,gaze_normal1_y_007,gaze_normal1_z_007,diameter0_2d_007,diameter1_2d_007,diameter0_3d_007,diameter1_3d_007
8536.1917653,16668562.0,1256125.0,1712336666624.0,-480.0,0.2942979633808136,176.0,0.10790925472974777,-15648.0,9.594114303588867,2722.0,3964.3486328125,2335.0,1710.6226806640625,34693.0,549.2957763671875,1.8205127716064453,1.0,0.39341223906560546,0.4047163679794765,-72.40135499172538,17.486353069114095,438.49775050500864,20.054950327303466,15.07854215152446,-19.455640398829075,-40.034961939465084,15.136280080633828,-19.915689189982775,-0.19789723716487947,0.0006783895336947372,0.980222537646502,-0.07042381325024566,0.00958895773560972,0.9974710714686613,50.3391753757885,53.17852294622553,3.362925665562974,3.6053264253283763
8536.2587826,16668818.0,1256132.75,1712336666624.0,-576.0,0.35315757989883423,192.0,0.11771918833255768,-15728.0,9.643163681030273,2717.0,3957.066650390625,2319.0,1698.901123046875,34693.0,549.2957763671875,1.8205127716064453,1.0,0.39306643109639233,0.40565348985760674,-73.80481203365571,17.38078285227068,445.4499324959156,20.054950327303466,15.07854215152446,-19.455640398829075,-40.034961939465084,15.136280080633828,-19.915689189982775,-0.19789723716487947,0.0006783895336947372,0.980222537646502,-0.07237033265203655,0.008985982731883209,0.9973373486770541,50.3391753757885,53.60376003841431,3.362925665562974,3.6334594824621025
8536.3262849,16669074.0,1256140.625,1712336666624.0,-576.0,0.35315757989883423,176.0,0.10790925472974777,-15664.0,9.603923797607422,2720.0,3961.435791015625,2329.0,1706.22705078125,34693.0,549.2957763671875,1.8205127716064453,1.0,0.4269244147259423,0.41610055389681955,-55.64136112469109,14.825322886826797,507.67100733927555,nan,nan,nan,-2.0026236438374636,68.90152370055283,13.506408903679834,nan,nan,nan,-0.10727747496170721,-0.108152401627452,0.9883291968711915,nan,53.60376003841431,nan,3.6334594824621025
8536.393185,16669330.0,1256148.5,1712336666624.0,-528.0,0.3237277865409851,208.0,0.12752912938594818,-15648.0,9.594114303588867,2724.0,3967.261474609375,2330.0,1706.959716796875,34693.0,549.2957763671875,1.8205127716064453,1.0,0.39321971207783984,0.4032502848989732,-71.79706852534895,17.89239664703259,433.96910596532047,20.054950327303466,15.07854215152446,-19.455640398829075,-40.034961939465084,15.136280080633828,-19.915689189982775,-0.1985399933012484,0.0002581348966677333,0.9800927529710213,-0.069799302289347,0.01188114362526584,0.9974902986125109,50.24415469898174,52.59325502661413,3.3560924637110237,3.5654181242699874
8536.460758,16669586.0,1256156.25,1712336666624.0,-560.0,0.3433476388454437,240.0,0.1471489816904068,-15632.0,9.584303855895996,2725.0,3968.718017578125,2347.0,1719.4139404296875,34693.0,549.2957763671875,1.8205127716064453,0.991322249174118,0.3932131824563113,0.4020986459116378,-71.83556901646062,18.360542243790626,434.15555283071126,20.054950327303466,15.07854215152446,-19.455640398829075,-40.034961939465084,15.136280080633828,-19.915689189982775,-0.1985399933012484,0.0002581348966677333,0.9800927529710213,-0.06985295988479026,0.01391584613384293,0.9974602313985822,50.24415469898174,52.83684071234451,3.3560924637110237,3.582466343154093
8536.5277163,16669842.0,1256164.0,1712336666624.0,-592.0,0.36296749114990234,208.0,0.12752912938594818,-15632.0,9.584303855895996,2717.0,3957.066650390625,2329.0,1706.22705078125,34694.0,548.8540649414062,1.821977972984314,0.9728212654590607,0.3929086316847633,0.40152088370762484,-71.67262798130085,18.49340570321569,431.8309480503243,20.054950327303466,15.07854215152446,-19.455640398829075,-40.034961939465084,15.136280080633828,-19.915689189982775,-0.19918195529618404,0.0009120332255570322,0.9799620997159965,-0.06985295988479026,0.01391584613384293,0.9974602313985822,49.937409596219545,52.83684071234451,3.335732380214565,3.582466343154093
8536.5947909,16670098.0,1256171.875,1712336666624.0,-512.0,0.3139178454875946,192.0,0.11771918833255768,-15616.0,9.574494361877441,2723.0,3965.80517578125,2341.0,1715.018310546875,34693.0,549.2957763671875,1.8205127716064453,0.991322249174118,0.393172000858636,0.4022513241490602,-71.81402121083708,18.286674293796725,433.84689649229534,20.054950327303466,15.07854215152446,-19.455640398829075,-40.034961939465084,15.136280080633828,-19.915689189982775,-0.19862524546201188,-5.442836579550335e-05,0.9800755118370771,-0.06985295988479026,0.01391584613384293,0.9974602313985822,49.814726541324696,52.83684071234451,3.3273089331841583,3.582466343154093
8536.6626729,16670354.0,1256179.75,1712336666624.0,-528.0,0.3237277865409851,160.0,0.09809932857751846,-15728.0,9.643163681030273,2720.0,3961.435791015625,2332.0,1708.4249267578125,34694.0,548.8540649414062,1.821977972984314,1.0,0.39301007607402844,0.40273510152086023,-72.45447652584457,18.225943506206903,437.00776004395055,20.054950327303466,15.07854215152446,-19.455640398829075,-40.034961939465084,15.136280080633828,-19.915689189982775,-0.19862524546201188,-5.442836579550335e-05,0.9800755118370771,-0.07076367629278085,0.013556537939488108,0.9974009837555936,49.814726541324696,52.845918409723446,3.3273089331841583,3.583202191076183
8536.7306835,16670610.0,1256187.5,1712336666624.0,-560.0,0.3433476388454437,144.0,0.08828939497470856,-15632.0,9.584303855895996,2723.0,3965.80517578125,2340.0,1714.2857666015625,34693.0,549.2957763671875,1.8205127716064453,1.0,0.393101137699294,0.4021317029373167,-72.50280765074773,18.497306696287822,437.69244895974384,20.054950327303466,15.07854215152446,-19.455640398829075,-40.034961939465084,15.136280080633828,-19.915689189982775,-0.19843840890513734,0.0010988727836347616,0.9801127436931952,-0.07076367629278085,0.013556537939488108,0.9974009837555936,49.64726333983573,52.845918409723446,3.3164356653906895,3.583202191076183
8536.798742,16670866.0,1256195.25,1712336666624.0,-528.0,0.3237277865409851,160.0,0.09809932857751846,-15664.0,9.603923797607422,2715.0,3954.15380859375,2330.0,1706.959716796875,34694.0,548.8540649414062,1.821977972984314,1.0,0.39310494973853,0.40216180840167626,-72.48713440070931,18.481889795722303,437.61516145284554,20.054950327303466,15.07854215152446,-19.455640398829075,-40.034961939465084,15.136280080633828,-19.915689189982775,-0.19843840890513734,0.0010988727836347616,0.9801127436931952,-0.07074163811903675,0.013492365387462542,0.9974034172352161,49.64726333983573,52.810698631708235,3.3164356653906895,3.580499612938846
8536.8678979,16671122.0,1256203.125,1712336666624.0,-560.0,0.3433476388454437,208.0,0.12752912938594818,-15728.0,9.643163681030273,2713.0,3951.240966796875,2310.0,1692.3077392578125,34693.0,549.2957763671875,1.8205127716064453,0.9873120784759521,0.39262452062941,0.4009908746572953,-72.22292326564416,18.794914266812324,433.89421833066046,20.054950327303466,15.07854215152446,-19.455640398829075,-40.034961939465084,15.136280080633828,-19.915689189982775,-0.1994529456355364,0.002581578475916472,0.9799040044462928,-0.07074163811903675,0.013492365387462542,0.9974034172352161,49.443504606928244,52.810698631708235,3.3029696284555694,3.580499612938846
8536.9356433,16671378.0,1256211.0,1712336666624.0,-528.0,0.3237277865409851,192.0,0.11771918833255768,-15664.0,9.603923797607422,2724.0,3967.261474609375,2333.0,1709.157470703125,34693.0,549.2957763671875,1.8205127716064453,0.9873120784759521,0.3923621404785663,0.40164493819683156,-73.27293656777346,18.75509897020699,439.0534731960067,20.054950327303466,15.07854215152446,-19.455640398829075,-40.034961939465084,15.136280080633828,-19.915689189982775,-0.1994529456355364,0.002581578475916472,0.9799040044462928,-0.0722209750447193,0.01313917421036983,0.997302107119332,49.443504606928244,52.75015978465116,3.3029696284555694,3.5759709015455377
8537.0027392,16671634.0,1256218.75,1712336666624.0,-544.0,0.3335376977920532,176.0,0.10790925472974777,-15616.0,9.574494361877441,2724.0,3967.261474609375,2331.0,1707.6922607421875,34693.0,549.2957763671875,1.8205127716064453,1.0,0.39264056551573356,0.40078702397948507,-73.42837588599981,19.194333057772102,441.20417303659707,20.054950327303466,15.07854215152446,-19.455640398829075,-40.034961939465084,15.136280080633828,-19.915689189982775,-0.1988746866902071,0.004393507489730608,0.9800150795196009,-0.0722209750447193,0.01313917421036983,0.997302107119332,49.33136135311711,52.75015978465116,3.2958901118967585,3.5759709015455377
8537.0707047,16671890.0,1256226.5,1712336666624.0,-512.0,0.3139178454875946,192.0,0.11771918833255768,-15648.0,9.594114303588867,2715.0,3954.15380859375,2330.0,1706.959716796875,34694.0,548.8540649414062,1.821977972984314,1.0,0.3923899719120908,0.4021032928823216,-74.45245524180481,18.874104006848057,446.25317589381217,20.054950327303466,15.07854215152446,-19.455640398829075,-40.034961939465084,15.136280080633828,-19.915689189982775,-0.1988746866902071,0.004393507489730608,0.9800150795196009,-0.07362362280790981,0.01158956061452009,0.9972187544613274,49.33136135311711,52.72163060403306,3.2958901118967585,3.573589335763252
8537.1386921,16672146.0,1256234.375,1712336666624.0,-512.0,0.3139178454875946,144.0,0.08828939497470856,-15648.0,9.594114303588867,2713.0,3951.240966796875,2307.0,1690.10986328125,34693.0,549.2957763671875,1.8205127716064453,1.0,0.39211568238746725,0.40383593493114867,-75.59695681185484,18.392868470740048,451.89581689174537,20.054950327303466,15.07854215152446,-19.455640398829075,-40.034961939465084,15.136280080633828,-19.915689189982775,-0.1988746866902071,0.004393507489730608,0.9800150795196009,-0.07515557013235938,0.009379987544029928,0.9971277030108802,49.33136135311711,52.5231018002005,3.2958901118967585,3.5598102229181983
8537.2056257,16672402.0,1256242.25,1712336666624.0,-496.0,0.3041079044342041,176.0,0.10790925472974777,-15728.0,9.643163681030273,2724.0,3967.261474609375,2334.0,1709.89013671875,34693.0,549.2957763671875,1.8205127716064453,1.0,0.39059581615501476,0.4030637158274537,-74.67675314740521,18.215634006988218,439.68636176268035,20.054950327303466,15.07854215152446,-19.455640398829075,-40.034961939465084,15.136280080633828,-19.915689189982775,-0.20206468467452224,0.003992323099671446,0.9793640408773715,-0.07515557013235938,0.009379987544029928,0.9971277030108802,49.67263081869365,52.5231018002005,3.3186664269595916,3.5598102229181983
8537.2727251,16672658.0,1256250.0,1712336666624.0,-496.0,0.3041079044342041,176.0,0.10790925472974777,-15632.0,9.584303855895996,2725.0,3968.718017578125,2336.0,1711.3553466796875,34693.0,549.2957763671875,1.8205127716064453,1.0,0.3902594920010196,0.40454374111983693,-76.08095403531964,17.89030973905399,446.49352879708067,20.054950327303466,15.07854215152446,-19.455640398829075,-40.034961939465084,15.136280080633828,-19.915689189982775,-0.20206468467452224,0.003992323099671446,0.9793640408773715,-0.07705086913096369,0.007804657532420359,0.996996615283605,49.67263081869365,52.679886935973826,3.3186664269595916,3.5703908910168303
8537.3397022,16672914.0,1256257.75,1712336666624.0,-528.0,0.3237277865409851,160.0,0.09809932857751846,-15616.0,9.574494361877441,2715.0,3954.15380859375,2333.0,1709.157470703125,34694.0,548.8540649414062,1.821977972984314,0.9895431399345398,0.3906667129334261,0.4043111091160997,-76.3352353415745,18.11674774717867,449.78550923885024,20.054950327303466,15.07854215152446,-19.455640398829075,-40.034961939465084,15.136280080633828,-19.915689189982775,-0.20121297926761195,0.004863956937818807,0.9795354403476979,-0.07705086913096369,0.007804657532420359,0.996996615283605,49.354025613313944,52.679886935973826,3.298002993142714,3.5703908910168303
8537.4072703,16673170.0,1256265.625,1712336666624.0,-544.0,0.3335376977920532,160.0,0.09809932857751846,-15648.0,9.594114303588867,2713.0,3951.240966796875,2310.0,1692.3077392578125,34693.0,549.2957763671875,1.8205127716064453,0.9745157659053802,0.3902929826119148,0.4025829437635561,-76.0966672445719,18.705656332358295,446.7028250060855,20.054950327303466,15.07854215152446,-19.455640398829075,-40.034961939465084,15.136280080633828,-19.915689189982775,-0.20200561393506852,0.007442054241338209,0.9793560883393665,-0.07705086913096369,0.007804657532420359,0.996996615283605,49.321256882047365,52.679886935973826,3.2954692302931603,3.5703908910168303
8537.4751013,16673426.0,1256273.5,1712336666624.0,-560.0,0.3433476388454437,192.0,0.11771918833255768,-15680.0,9.613734245300293,2723.0,3965.80517578125,2337.0,1712.087890625,34693.0,549.2957763671875,1.8205127716064453,0.9723279476165771,0.3900057611788096,0.4032048490307898,-77.34041567280846,18.700069255793473,452.73285861409926,20.054950327303466,15.07854215152446,-19.455640398829075,-40.034961939465084,15.136280080633828,-19.915689189982775,-0.20200561393506852,0.007442054241338209,0.9793560883393665,-0.07868152544319207,0.007585725004275012,0.9968709416620046,49.321256882047365,52.4247768313717,3.2954692302931603,3.5520314199501115
8537.5426796,16673682.0,1256281.25,1712336666624.0,-560.0,0.3433476388454437,176.0,0.10790925472974777,-15664.0,9.603923797607422,2722.0,3964.3486328125,2333.0,1709.157470703125,34693.0,549.2957763671875,1.8205127716064453,0.9745157659053802,0.39011980356127424,0.40291357903261715,-76.84318235169137,18.72082777983311,450.3220860957773,20.054950327303466,15.07854215152446,-19.455640398829075,-40.034961939465084,15.136280080633828,-19.915689189982775,-0.20200561393506852,0.007442054241338209,0.9793560883393665,-0.07803464917701143,0.00775046598949565,0.9969205203047866,49.321256882047365,52.636003751398526,3.2954692302931603,3.5666377748716114
8537.6093937,16673938.0,1256289.0,1712336666624.0,-576.0,0.35315757989883423,160.0,0.09809932857751846,-15712.0,9.633354187011719,2716.0,3955.6103515625,2322.0,1701.098876953125,34694.0,548.8540649414062,1.821977972984314,0.9958798587322235,0.38997974987349165,0.40292970422996954,-76.75378689099321,18.667332436724404,449.1797731469966,20.054950327303466,15.07854215152446,-19.455640398829075,-40.034961939465084,15.136280080633828,-19.915689189982775,-0.20229892838169497,0.007253132462247483,0.9792969598876037,-0.07803464917701143,0.00775046598949565,0.9969205203047866,49.32652798444073,52.636003751398526,3.2955938628849752,3.5666377748716114
8537.6765817,16674194.0,1256296.875,1712336666624.0,-592.0,0.36296749114990234,128.0,0.07847946137189865,-15696.0,9.623543739318848,2712.0,3949.78466796875,2304.0,1687.912109375,34693.0,549.2957763671875,1.8205127716064453,1.0,0.3904382966260043,0.4033385387163143,-77.04935791765206,18.65140288311503,452.9555333868999,20.054950327303466,15.07854215152446,-19.455640398829075,-40.034961939465084,15.136280080633828,-19.915689189982775,-0.20133579189152587,0.007068180544538625,0.9794967788243115,-0.07803464917701143,0.00775046598949565,0.9969205203047866,49.10992117477671,52.636003751398526,3.281758710229065,3.5666377748716114
8537.7442936,16674450.0,1256304.75,1712336666624.0,-576.0,0.35315757989883423,208.0,0.12752912938594818,-15728.0,9.643163681030273,2709.0,3945.415283203125,2293.0,1679.853515625,34693.0,549.2957763671875,1.8205127716064453,1.0,0.39006722963286455,0.40471092810028386,-78.6928363035952,18.399522380649394,460.9516942386682,20.054950327303466,15.07854215152446,-19.455640398829075,-40.034961939465084,15.136280080633828,-19.915689189982775,-0.20133579189152587,0.007068180544538625,0.9794967788243115,-0.08013190107356238,0.006467120352805493,0.9967632892440809,49.10992117477671,52.07772919632258,3.281758710229065,3.5286764364488414
8537.8121715,16674706.0,1256312.5,1712336666624.0,-624.0,0.38258737325668335,192.0,0.11771918833255768,-15664.0,9.603923797607422,2724.0,3967.261474609375,2321.0,1700.3663330078125,34693.0,549.2957763671875,1.8205127716064453,1.0,0.39028269678470834,0.4057583529012745,-78.84457545051663,18.027107660912897,462.83674435724254,20.054950327303466,15.07854215152446,-19.455640398829075,-40.034961939465084,15.136280080633828,-19.915689189982775,-0.2008781658965652,0.005490650740838198,0.9796008448447123,-0.08013190107356238,0.006467120352805493,0.9967632892440809,49.01018509061436,52.07772919632258,3.2743420418802094,3.5286764364488414
8537.8796951,16674962.0,1256320.25,1712336666624.0,-592.0,0.36296749114990234,160.0,0.09809932857751846,-15680.0,9.613734245300293,2717.0,3957.066650390625,2316.0,1696.7032470703125,34693.0,549.2957763671875,1.8205127716064453,1.0,0.38999456690477236,0.40693722874933336,-80.16711487972157,17.76997938382943,469.28649509392915,20.054950327303466,15.07854215152446,-19.455640398829075,-40.034961939465084,15.136280080633828,-19.915689189982775,-0.2008781658965652,0.005490650740838198,0.9796008448447123,-0.08176018146750808,0.005269442340136582,0.9966381016717274,49.01018509061436,52.14234476221138,3.2743420418802094,3.532787396678649
8537.9469568,16675218.0,1256328.125,1712336666624.0,-528.0,0.3237277865409851,192.0,0.11771918833255768,-15648.0,9.594114303588867,2721.0,3962.892333984375,2331.0,1707.6922607421875,34694.0,548.8540649414062,1.821977972984314,1.0,0.3900647025743385,0.40618510419484366,-79.84872328051247,18.03495092056747,467.73359303444937,20.054950327303466,15.07854215152446,-19.455640398829075,-40.034961939465084,15.136280080633828,-19.915689189982775,-0.2008781658965652,0.005490650740838198,0.9796008448447123,-0.08137160145788397,0.006378195470237555,0.996663424180261,49.01018509061436,52.011912076788846,3.2743420418802094,3.523685765922841
8538.014687,16675474.0,1256336.0,1712336666624.0,-528.0,0.3237277865409851,160.0,0.09809932857751846,-15680.0,9.613734245300293,2708.0,3943.958984375,2294.0,1680.5860595703125,34693.0,549.2957763671875,1.8205127716064453,1.0,0.3899707084794581,0.4065208225480095,-79.78220456762448,17.859505828077985,466.91762867150703,20.054950327303466,15.07854215152446,-19.455640398829075,-40.034961939465084,15.136280080633828,-19.915689189982775,-0.2010736930291175,0.004797803890456185,0.9795643679970505,-0.08137160145788397,0.006378195470237555,0.996663424180261,48.91466612256756,52.011912076788846,3.2679944302512376,3.523685765922841
8538.0826708,16675730.0,1256343.75,1712336666624.0,-528.0,0.3237277865409851,176.0,0.10790925472974777,-15632.0,9.584303855895996,2696.0,3926.48193359375,2262.0,1657.142822265625,34694.0,548.8540649414062,1.821977972984314,1.0,0.3900114262510265,0.4077664669228952,-79.57365039264485,17.28584042048285,465.9017863690063,20.054950327303466,15.07854215152446,-19.455640398829075,-40.034961939465084,15.136280080633828,-19.915689189982775,-0.2010736930291175,0.004797803890456185,0.9795643679970505,-0.08111723433766055,0.004067046091142911,0.9966962693968016,48.91466612256756,52.119342604551456,3.2679944302512376,3.5311954960462275
8538.1499194,16675986.0,1256351.5,1712336666624.0,-528.0,0.3237277865409851,160.0,0.09809932857751846,-15648.0,9.594114303588867,2716.0,3955.6103515625,2279.0,1669.5970458984375,34693.0,549.2957763671875,1.8205127716064453,1.0,0.38952618316301324,0.40804165839909334,-79.232327668909,17.015238784638903,461.7058809681555,20.054950327303466,15.07854215152446,-19.455640398829075,-40.034961939465084,15.136280080633828,-19.915689189982775,-0.20209009301842337,0.0037633491062899873,0.979359704861962,-0.08111723433766055,0.004067046091142911,0.9966962693968016,48.90981379222903,52.119342604551456,3.2669964831501574,3.5311954960462275
8538.2174385,16676242.0,1256359.375,1712336666624.0,-560.0,0.3433476388454437,160.0,0.09809932857751846,-15648.0,9.594114303588867,2712.0,3949.78466796875,2292.0,1679.120849609375,34694.0,548.8540649414062,1.821977972984314,1.0,0.38908375018312624,0.4093769327278045,-78.9294055295937,16.316345519992154,457.9771403180091,20.054950327303466,15.07854215152446,-19.455640398829075,-40.034961939465084,15.136280080633828,-19.915689189982775,-0.20300973786656068,0.0009327405434740136,0.9791762743890544,-0.08111723433766055,0.004067046091142911,0.9966962693968016,49.012037489431236,52.119342604551456,3.27354941040495,3.5311954960462275
8538.2847221,16676498.0,1256367.25,1712336666624.0,-512.0,0.3139178454875946,128.0,0.07847946137189865,-15664.0,9.603923797607422,2723.0,3965.80517578125,2315.0,1695.970703125,34693.0,549.2957763671875,1.8205127716064453,1.0,0.38904298462398934,0.4086077314188745,-79.12651651199849,16.67561076038714,458.9278826887132,20.054950327303466,15.07854215152446,-19.455640398829075,-40.034961939465084,15.136280080633828,-19.915689189982775,-0.20300973786656068,0.0009327405434740136,0.9791762743890544,-0.08136379026175766,0.0055401842184891505,0.9966690724573859,49.012037489431236,51.866599066577,3.27354941040495,3.5138225109623717
8538.3517876,16676754.0,1256375.0,1712336666624.0,-528.0,0.3237277865409851,208.0,0.12752912938594818,-15648.0,9.594114303588867,2698.0,3929.394775390625,2280.0,1670.3297119140625,34694.0,548.8540649414062,1.821977972984314,1.0,0.3890468270119444,0.41031939205205614,-79.13421259090936,15.954894206422393,459.0132025161687,20.054950327303466,15.07854215152446,-19.455640398829075,-40.034961939465084,15.136280080633828,-19.915689189982775,-0.20299138191952396,-0.002043178482862671,0.9791783924740625,-0.08136379026175766,0.0055401842184891505,0.9966690724573859,48.7358153599494,51.866599066577,3.2547748081168333,3.5138225109623717
8538.4195931,16677010.0,1256382.75,1712336666624.0,-544.0,0.3335376977920532,224.0,0.1373390555381775,-15696.0,9.623543739318848,2718.0,3958.523193359375,2295.0,1681.3187255859375,34693.0,549.2957763671875,1.8205127716064453,1.0,0.38865797165380683,0.41006168366974793,-80.95144856646115,16.372264430026426,467.7785886884164,20.054950327303466,15.07854215152446,-19.455640398829075,-40.034961939465084,15.136280080633828,-19.915689189982775,-0.20299138191952396,-0.002043178482862671,0.9791783924740625,-0.08359838128446008,0.00716853344296138,0.9964737441472783,48.7358153599494,52.20801115209131,3.2547748081168333,3.536498404292808
8538.6408143,16677266.0,1256390.625,1712336666624.0,-560.0,0.3433476388454437,192.0,0.11771918833255768,-15680.0,9.613734245300293,2715.0,3954.15380859375,2312.0,1693.77294921875,34694.0,548.8540649414062,1.821977972984314,1.0,0.3888815354844466,0.40972566050458115,-79.90474175207041,16.337855152105597,462.72953603147516,20.054950327303466,15.07854215152446,-19.455640398829075,-40.034961939465084,15.136280080633828,-19.915689189982775,-0.20299138191952396,-0.002043178482862671,0.9791783924740625,-0.08232075949254102,0.0070815261962468585,0.9965807265562098,48.7358153599494,51.87825724213633,3.2547748081168333,3.5147103267009103
8538.7079438,16677522.0,1256398.5,1712336666624.0,-496.0,0.3041079044342041,160.0,0.09809932857751846,-15728.0,9.643163681030273,2726.0,3970.17431640625,2330.0,1706.959716796875,34693.0,549.2957763671875,1.8205127716064453,1.0,0.3893155232171213,0.41007869353378845,-80.21732753798571,16.317896673786194,466.5131537601884,20.054950327303466,15.07854215152446,-19.455640398829075,-40.034961939465084,15.136280080633828,-19.915689189982775,-0.20207974032646026,-0.0021630118364330494,0.9793666830811562,-0.08232075949254102,0.0070815261962468585,0.9965807265562098,48.741482395008845,51.87825724213633,3.2547552887967535,3.5147103267009103
8538.7756206,16677778.0,1256406.25,1712336666624.0,-544.0,0.3335376977920532,208.0,0.12752912938594818,-15664.0,9.603923797607422,2724.0,3967.261474609375,2340.0,1714.2857666015625,34693.0,549.2957763671875,1.8205127716064453,1.0,0.38966701765708917,0.41105938863249336,-80.47637256097678,16.001745111878797,469.6443880334696,20.054950327303466,15.07854215152446,-19.455640398829075,-40.034961939465084,15.136280080633828,-19.915689189982775,-0.2013364631700662,-0.0034708398465781135,0.9795159936769425,-0.08232075949254102,0.0070815261962468585,0.9965807265562098,48.73088563384122,51.87825724213633,3.254045233399548,3.5147103267009103
8538.8424504,16678034.0,1256414.0,1712336666624.0,-528.0,0.3237277865409851,192.0,0.11771918833255768,-15696.0,9.623543739318848,2718.0,3958.523193359375,2327.0,1704.761962890625,34693.0,549.2957763671875,1.8205127716064453,1.0,0.38959541354420363,0.4120582353555584,-80.80367788349203,15.622829931643555,471.23732089112207,20.054950327303466,15.07854215152446,-19.455640398829075,-40.034961939465084,15.136280080633828,-19.915689189982775,-0.2013364631700662,-0.0034708398465781135,0.9795159936769425,-0.0827163430911211,0.005544558567667387,0.9965577075392683,48.73088563384122,52.31536315313331,3.254045233399548,3.543756476708869
8538.9101576,16678290.0,1256421.875,1712336666624.0,-512.0,0.3139178454875946,192.0,0.11771918833255768,-15696.0,9.623543739318848,2713.0,3951.240966796875,2315.0,1695.970703125,34693.0,549.2957763671875,1.8205127716064453,1.0,0.3902097249228951,0.4130102573278195,-81.26741179451328,15.38748674933473,476.8203685730208,20.054950327303466,15.07854215152446,-19.455640398829075,-40.034961939465084,15.136280080633828,-19.915689189982775,-0.20004103256624003,-0.004430648321218675,0.9797775026225526,-0.0827163430911211,0.005544558567667387,0.9965577075392683,48.62856680211469,52.31536315313331,3.247374723008737,3.543756476708869
8538.9776986,16678546.0,1256429.75,1712336666624.0,-576.0,0.35315757989883423,144.0,0.08828939497470856,-15664.0,9.603923797607422,2726.0,3970.17431640625,2337.0,1712.087890625,34693.0,549.2957763671875,1.8205127716064453,1.0,0.38999754652978014,0.41293235372598025,-82.30654533745631,15.587136636525125,481.9098340141993,20.054950327303466,15.07854215152446,-19.455640398829075,-40.034961939465084,15.136280080633828,-19.915689189982775,-0.20004103256624003,-0.004430648321218675,0.9797775026225526,-0.0839318321446212,0.0063197971379779835,0.9964514577825566,48.62856680211469,51.9676043159433,3.247374723008737,3.5197037999453573
8539.0455277,16678802.0,1256437.5,1712336666624.0,-608.0,0.37277743220329285,176.0,0.10790925472974777,-15680.0,9.613734245300293,2725.0,3968.718017578125,2344.0,1717.216064453125,34693.0,549.2957763671875,1.8205127716064453,1.0,0.3905820651355939,0.41376775007204925,-82.77398605895615,15.389298995060788,487.4557993870206,20.054950327303466,15.07854215152446,-19.455640398829075,-40.034961939465084,15.136280080633828,-19.915689189982775,-0.19880691562617123,-0.005222087205911193,0.9800247650464872,-0.0839318321446212,0.0063197971379779835,0.9964514577825566,48.66343978507204,51.9676043159433,3.249875152453544,3.5197037999453573
8539.1125931,16679058.0,1256445.25,1712336666624.0,-576.0,0.35315757989883423,144.0,0.08828939497470856,-15600.0,9.56468391418457,2711.0,3948.328125,2323.0,1701.83154296875,34694.0,548.8540649414062,1.821977972984314,1.0,0.39062814653443934,0.41330749043539583,-82.54921629512569,15.560191041079133,486.3474698596053,20.054950327303466,15.07854215152446,-19.455640398829075,-40.034961939465084,15.136280080633828,-19.915689189982775,-0.19880691562617123,-0.005222087205911193,0.9800247650464872,-0.08367447944219618,0.006989687424915691,0.9964686275843206,48.66343978507204,51.73888495902059,3.249875152453544,3.5048044206199167
8539.1796771,16679314.0,1256453.125,1712336666624.0,-640.0,0.39239731431007385,128.0,0.07847946137189865,-15664.0,9.603923797607422,2710.0,3946.871826171875,2300.0,1684.981689453125,34693.0,549.2957763671875,1.8205127716064453,1.0,0.3898853200563911,0.41271162527037064,-81.96290803814911,15.602743858458158,479.36645177936555,20.054950327303466,15.07854215152446,-19.455640398829075,-40.034961939465084,15.136280080633828,-19.915689189982775,-0.20037204658183785,-0.005029164804475161,0.9797069717267379,-0.08367447944219618,0.006989687424915691,0.9964686275843206,48.665030244405386,51.73888495902059,3.2498216169045606,3.5048044206199167
8539.2468607,16679570.0,1256461.0,1712336666624.0,-576.0,0.35315757989883423,144.0,0.08828939497470856,-15632.0,9.584303855895996,2725.0,3968.718017578125,2334.0,1709.89013671875,34693.0,549.2957763671875,1.8205127716064453,1.0,0.38978602823147346,0.41383950970283145,-82.43760112825751,15.178461387792463,481.68802306388636,20.054950327303466,15.07854215152446,-19.455640398829075,-40.034961939465084,15.136280080633828,-19.915689189982775,-0.20037204658183785,-0.005029164804475161,0.9797069717267379,-0.08422753931257253,0.0053082940330033196,0.9964324079614273,48.665030244405386,51.62211024479093,3.2498216169045606,3.497034846460214
8539.3139605,16679826.0,1256468.75,1712336666624.0,-528.0,0.3237277865409851,160.0,0.09809932857751846,-15648.0,9.594114303588867,2724.0,3967.261474609375,2332.0,1708.4249267578125,34693.0,549.2957763671875,1.8205127716064453,1.0,0.39034314407638104,0.41305010606144243,-82.87874599361317,15.694835339015057,486.91440811427475,20.054950327303466,15.07854215152446,-19.455640398829075,-40.034961939465084,15.136280080633828,-19.915689189982775,-0.199205724414993,-0.003017488108897235,0.97995304689858,-0.08422753931257253,0.0053082940330033196,0.9964324079614273,48.44414592968694,51.62211024479093,3.234861171127285,3.497034846460214
8539.3817243,16680082.0,1256476.5,1712336666624.0,-496.0,0.3041079044342041,160.0,0.09809932857751846,-15664.0,9.603923797607422,2719.0,3959.9794921875,2340.0,1714.2857666015625,34694.0,548.8540649414062,1.821977972984314,1.0,0.38989299458467847,0.4141588934582867,-85.17618928571662,15.552355997008611,498.2164210498985,20.054950327303466,15.07854215152446,-19.455640398829075,-40.034961939465084,15.136280080633828,-19.915689189982775,-0.199205724414993,-0.003017488108897235,0.97995304689858,-0.08678975175534132,0.004714408733966279,0.9962154954328583,48.44414592968694,52.08014384917521,3.234861171127285,3.5272892604302717
8539.4498702,16680338.0,1256484.375,1712336666624.0,-512.0,0.3139178454875946,192.0,0.11771918833255768,-15648.0,9.594114303588867,2707.0,3942.502685546875,2301.0,1685.7142333984375,34693.0,549.2957763671875,1.8205127716064453,1.0,0.3897136120834629,0.41438799759074785,-85.02184483525872,15.39297500351916,496.44260339190953,20.054950327303466,15.07854215152446,-19.455640398829075,-40.034961939465084,15.136280080633828,-19.915689189982775,-0.19958195738599083,-0.003621944774870523,0.9798744428762413,-0.08678975175534132,0.004714408733966279,0.9962154954328583,48.46568538280098,52.08014384917521,3.2364314103255065,3.5272892604302717
8539.5177777,16680594.0,1256492.25,1712336666624.0,-512.0,0.3139178454875946,176.0,0.10790925472974777,-15600.0,9.56468391418457,2725.0,3968.718017578125,2337.0,1712.087890625,34693.0,549.2957763671875,1.8205127716064453,1.0,0.3898799507767716,0.41397546957102604,-84.16435384061553,15.448741185621293,492.23256205104866,20.054950327303466,15.07854215152446,-19.455640398829075,-40.034961939465084,15.136280080633828,-19.915689189982775,-0.19958195738599083,-0.003621944774870523,0.9798744428762413,-0.08584217449167647,0.004938708984761823,0.9962965071865426,48.46568538280098,51.448084881644085,3.2364314103255065,3.484275229603315
8539.5850338,16680850.0,1256500.0,1712336666624.0,-464.0,0.2844880521297455,128.0,0.07847946137189865,-15616.0,9.574494361877441,2724.0,3967.261474609375,2332.0,1708.4249267578125,34693.0,549.2957763671875,1.8205127716064453,0.9838453829288483,0.3906457427966477,0.4142782948756979,-84.81697841863576,15.54411961529191,499.8079778044689,20.054950327303466,15.07854215152446,-19.455640398829075,-40.034961939465084,15.136280080633828,-19.915689189982775,-0.19796796162569538,-0.0032780309373582894,0.9802030099336263,-0.08584217449167647,0.004938708984761823,0.9962965071865426,48.560274017004396,51.448084881644085,3.2427521576475837,3.484275229603315
8539.6527218,16681106.0,1256507.75,1712336666624.0,-512.0,0.3139178454875946,160.0,0.09809932857751846,-15712.0,9.633354187011719,2717.0,3957.066650390625,2332.0,1708.4249267578125,34694.0,548.8540649414062,1.821977972984314,0.9838453829288483,0.39031830625636077,0.413763971061461,-86.57168433966203,16.056388678126936,508.49578267840207,20.054950327303466,15.07854215152446,-19.455640398829075,-40.034961939465084,15.136280080633828,-19.915689189982775,-0.19796796162569538,-0.0032780309373582894,0.9802030099336263,-0.08772330536149207,0.006828034793612729,0.996121478353575,48.560274017004396,51.72629381133265,3.2427521576475837,3.5029163711423155
8539.7205365,16681362.0,1256515.625,1712336666624.0,-496.0,0.3041079044342041,176.0,0.10790925472974777,-15712.0,9.633354187011719,2724.0,3967.261474609375,2331.0,1707.6922607421875,34693.0,549.2957763671875,1.8205127716064453,0.9762110710144043,0.39033077564302215,0.4134784989586867,-86.50791368099331,16.179914299482217,508.1797736710041,20.054950327303466,15.07854215152446,-19.455640398829075,-40.034961939465084,15.136280080633828,-19.915689189982775,-0.19796796162569538,-0.0032780309373582894,0.9802030099336263,-0.0876556566746153,0.007292642640590702,0.9961241404645602,48.560274017004396,51.42526353220665,3.2427521576475837,3.4832322319393105
8539.7873644,16681618.0,1256523.5,1712336666624.0,-544.0,0.3335376977920532,160.0,0.09809932857751846,-15680.0,9.613734245300293,2722.0,3964.3486328125,2340.0,1714.2857666015625,34694.0,548.8540649414062,1.821977972984314,0.992365688085556,0.3911178134045531,0.41380979152954966,-87.23791618517916,16.283304274567136,516.476369390047,20.054950327303466,15.07854215152446,-19.455640398829075,-40.034961939465084,15.136280080633828,-19.915689189982775,-0.19630537642811724,-0.0029582992433238604,0.9805383458340639,-0.0876556566746153,0.007292642640590702,0.9961241404645602,48.51006861718125,51.42526353220665,3.2393576576268925,3.4832322319393105
8539.8542471,16681874.0,1256531.25,1712336666624.0,-576.0,0.35315757989883423,128.0,0.07847946137189865,-15664.0,9.603923797607422,2726.0,3970.17431640625,2344.0,1717.216064453125,34693.0,549.2957763671875,1.8205127716064453,1.0,0.3910439720202201,0.413636503608089,-87.65077978666606,16.431323508535034,518.5382825115292,20.054950327303466,15.07854215152446,-19.455640398829075,-40.034961939465084,15.136280080633828,-19.915689189982775,-0.19630537642811724,-0.0029582992433238604,0.9805383458340639,-0.08808001458026862,0.00781954650778367,0.9960827102826112,48.51006861718125,51.69853604591496,3.2393576576268925,3.501288886891461
8539.9217244,16682130.0,1256539.0,1712336666624.0,-624.0,0.38258737325668335,144.0,0.08828939497470856,-15648.0,9.594114303588867,2714.0,3952.697509765625,2326.0,1704.029296875,34694.0,548.8540649414062,1.821977972984314,1.0,0.39017367396926345,0.4122706759682918,-86.83095387297405,16.78168558110483,509.2723173281504,20.054950327303466,15.07854215152446,-19.455640398829075,-40.034961939465084,15.136280080633828,-19.915689189982775,-0.19814980430074347,-0.0015650914631136171,0.9801704982013533,-0.08808001458026862,0.00781954650778367,0.9960827102826112,48.525559752815674,51.69853604591496,3.2403969361621403,3.501288886891461
8539.9895339,16682386.0,1256546.875,1712336666624.0,-592.0,0.36296749114990234,176.0,0.10790925472974777,-15632.0,9.584303855895996,2724.0,3967.261474609375,2333.0,1709.157470703125,34693.0,549.2957763671875,1.8205127716064453,1.0,0.39012723978565333,0.41224930122440906,-86.78820527076175,16.77596591383073,508.7888463897576,20.054950327303466,15.07854215152446,-19.455640398829075,-40.034961939465084,15.136280080633828,-19.915689189982775,-0.19824783090311976,-0.001580822242319904,0.9801506509426222,-0.08808001458026862,0.00781954650778367,0.9960827102826112,48.565692313875466,51.69853604591496,3.2430791298959716,3.501288886891461
8540.0573595,16682642.0,1256554.75,1712336666624.0,-608.0,0.37277743220329285,160.0,0.09809932857751846,-15712.0,9.633354187011719,2715.0,3954.15380859375,2323.0,1701.83154296875,34694.0,548.8540649414062,1.821977972984314,1.0,0.38950010110812056,0.4131760357042845,-90.30826551858361,16.903517435286652,526.1922085627348,20.054950327303466,15.07854215152446,-19.455640398829075,-40.034961939465084,15.136280080633828,-19.915689189982775,-0.19824783090311976,-0.001580822242319904,0.9801506509426222,-0.09166349972076228,0.008081364282048451,0.9957572467073903,48.565692313875466,51.83731448450053,3.2430791298959716,3.509567365864437
8540.1247627,16682898.0,1256562.5,1712336666624.0,-576.0,0.35315757989883423,160.0,0.09809932857751846,-15680.0,9.613734245300293,2726.0,3970.17431640625,2342.0,1715.7509765625,34693.0,549.2957763671875,1.8205127716064453,1.0,0.3819242529286531,0.4374652172312714,-83.56429949571074,4.440622386773299,453.41355843717963,73.39382899095753,39.93793207776327,-19.982773304696547,nan,nan,nan,-0.31391625697333664,-0.07099461938197996,0.9467926634837522,nan,nan,nan,48.565692313875466,nan,3.2430791298959716,nan
8540.1927183,16683154.0,1256570.25,1712336666624.0,-608.0,0.37277743220329285,128.0,0.07847946137189865,-15696.0,9.623543739318848,2719.0,3959.9794921875,2334.0,1709.89013671875,34694.0,548.8540649414062,1.821977972984314,1.0,0.38920405146516424,0.41324429784890415,-90.67915733838434,16.892136755322475,526.8288525231726,20.054950327303466,15.07854215152446,-19.455640398829075,-40.034961939465084,15.136280080633828,-19.915689189982775,-0.19866508331172722,-0.0009869702097693336,0.980066941878232,-0.09222830797598446,0.007438364150073564,0.995710103366767,48.532731582100624,52.25595502680027,3.2409457489436084,3.5376923010724854
8540.2597821,16683410.0,1256578.125,1712336666624.0,-576.0,0.35315757989883423,160.0,0.09809932857751846,-15632.0,9.584303855895996,2711.0,3948.328125,2320.0,1699.6336669921875,34694.0,548.8540649414062,1.821977972984314,1.0,0.3896973807281065,0.4136987114042424,-87.85800987585476,16.229222978981536,512.9120934269343,20.054950327303466,15.07854215152446,-19.455640398829075,-40.034961939465084,15.136280080633828,-19.915689189982775,-0.19866508331172722,-0.0009869702097693336,0.980066941878232,-0.08939030356411508,0.005148298596533156,0.9959833676574505,48.532731582100624,51.70497554001241,3.2409457489436084,3.5012436195986703
8540.3268112,16683666.0,1256586.0,1712336666624.0,-592.0,0.36296749114990234,176.0,0.10790925472974777,-15648.0,9.594114303588867,2724.0,3967.261474609375,2326.0,1704.029296875,34693.0,549.2957763671875,1.8205127716064453,1.0,0.3896826567271349,0.4140580124651835,-87.845378621299,16.05512694653055,512.7692647278694,20.054950327303466,15.07854215152446,-19.455640398829075,-40.034961939465084,15.136280080633828,-19.915689189982775,-0.1986941725681132,-0.0016319705268978805,0.9800601830804434,-0.08939030356411508,0.005148298596533156,0.9959833676574505,48.49978800485202,51.70497554001241,3.238598716272264,3.5012436195986703
8540.3944166,16683922.0,1256593.75,1712336666624.0,-544.0,0.3335376977920532,160.0,0.09809932857751846,-15664.0,9.603923797607422,2723.0,3965.80517578125,2345.0,1717.94873046875,34694.0,548.8540649414062,1.821977972984314,1.0,0.38921271418223913,0.41364570870225215,-87.403432683918,16.09570522132677,507.8458781709294,20.054950327303466,15.07854215152446,-19.455640398829075,-40.034961939465084,15.136280080633828,-19.915689189982775,-0.19968675108473397,-0.0014475425648160524,0.9798587173984556,-0.08939030356411508,0.005148298596533156,0.9959833676574505,48.615197035152214,51.70497554001241,3.246470496181643,3.5012436195986703
8540.4617872,16684178.0,1256601.5,1712336666624.0,-576.0,0.35315757989883423,160.0,0.09809932857751846,-15664.0,9.603923797607422,2719.0,3959.9794921875,2332.0,1708.4249267578125,34694.0,548.8540649414062,1.821977972984314,1.0,0.3891935586345034,0.41424849401889563,-87.49953087473472,15.828569728952546,508.3173640464389,20.054950327303466,15.07854215152446,-19.455640398829075,-40.034961939465084,15.136280080633828,-19.915689189982775,-0.19968675108473397,-0.0014475425648160524,0.9798587173984556,-0.089491599674857,0.0041453430549801,0.995978950439512,48.615197035152214,51.742878596338294,3.246470496181643,3.502770485723837
8540.5295444,16684434.0,1256609.375,1712336666624.0,-528.0,0.3237277865409851,160.0,0.09809932857751846,-15680.0,9.613734245300293,2723.0,3965.80517578125,2349.0,1720.879150390625,34694.0,548.8540649414062,1.821977972984314,1.0,0.3889421530556273,0.414148173582234,-88.90107145657315,16.09136285090181,515.1948402157175,20.054950327303466,15.07854215152446,-19.455640398829075,-40.034961939465084,15.136280080633828,-19.915689189982775,-0.19968675108473397,-0.0014475425648160524,0.9798587173984556,-0.09093739382694661,0.005081161811449794,0.995843648470285,48.615197035152214,51.429862100342795,3.246470496181643,3.480833323523387
8540.5966981,16684690.0,1256617.25,1712336666624.0,-560.0,0.3433476388454437,176.0,0.10790925472974777,-15696.0,9.623543739318848,2724.0,3967.261474609375,2337.0,1712.087890625,34694.0,548.8540649414062,1.821977972984314,1.0,0.3889663489188439,0.414053330737263,-88.92423950535164,16.14422607170309,515.4491674774147,20.054950327303466,15.07854215152446,-19.455640398829075,-40.034961939465084,15.136280080633828,-19.915689189982775,-0.19963627589312696,-0.0012540796397004154,0.979869269153687,-0.09093739382694661,0.005081161811449794,0.995843648470285,48.54815425433269,51.429862100342795,3.2418191766192015,3.480833323523387
8540.6647104,16684946.0,1256625.0,1712336666624.0,-496.0,0.3041079044342041,192.0,0.11771918833255768,-15696.0,9.623543739318848,2699.0,3930.851318359375,2297.0,1682.783935546875,34695.0,548.4130249023438,1.8234431743621826,1.0,0.3889796021032325,0.4142107486159402,-88.93771946841731,16.074023927382132,515.5959386029506,20.054950327303466,15.07854215152446,-19.455640398829075,-40.034961939465084,15.136280080633828,-19.915689189982775,-0.19960748633238734,-0.0015142325180069794,0.9798747667431523,-0.09093739382694661,0.005081161811449794,0.995843648470285,48.64286997961078,51.429862100342795,3.2477642054213267,3.480833323523387
8540.732599,16685202.0,1256632.75,1712336666624.0,-528.0,0.3237277865409851,160.0,0.09809932857751846,-15712.0,9.633354187011719,2719.0,3959.9794921875,2309.0,1691.5750732421875,34694.0,548.8540649414062,1.821977972984314,1.0,0.3891789497068622,0.41415955622932177,-87.82416683456029,15.92683418378019,510.12942892793,20.054950327303466,15.07854215152446,-19.455640398829075,-40.034961939465084,15.136280080633828,-19.915689189982775,-0.19960748633238734,-0.0015142325180069794,0.9798747667431523,-0.08979287752938832,0.004569244382780978,0.9959499792413085,48.64286997961078,51.651126227577514,3.2477642054213267,3.496631356963415
8540.7996982,16685458.0,1256640.625,1712336666624.0,-528.0,0.3237277865409851,96.0,0.05885959416627884,-15680.0,9.613734245300293,2723.0,3965.80517578125,2337.0,1712.087890625,34694.0,548.8540649414062,1.821977972984314,1.0,0.3895039018924956,0.4149725379475464,-88.13488369469957,15.64854773634152,513.5720908937885,20.054950327303466,15.07854215152446,-19.455640398829075,-40.034961939465084,15.136280080633828,-19.915689189982775,-0.19891823762606273,-0.0025649104900024988,0.9800127325570416,-0.08979287752938832,0.004569244382780978,0.9959499792413085,48.60055492260148,51.651126227577514,3.2450000551011935,3.496631356963415
8540.86766,16685714.0,1256648.5,1712336666624.0,-576.0,0.35315757989883423,128.0,0.07847946137189865,-15728.0,9.643163681030273,2724.0,3967.261474609375,2334.0,1709.89013671875,34694.0,548.8540649414062,1.821977972984314,1.0,0.38951458919551996,0.4167158430041522,-88.04882734396307,14.811950169673711,513.1465546202417,20.054950327303466,15.07854215152446,-19.455640398829075,-40.034961939465084,15.136280080633828,-19.915689189982775,-0.19891823762606273,-0.0025649104900024988,0.9800127325570416,-0.08970642427979962,0.0014683948826989476,0.995967168765819,48.60055492260148,51.85671733620571,3.2450000551011935,3.510140885547627
8540.9355983,16685970.0,1256656.25,1712336666624.0,-576.0,0.35315757989883423,176.0,0.10790925472974777,-15696.0,9.623543739318848,2725.0,3968.718017578125,2349.0,1720.879150390625,34694.0,548.8540649414062,1.821977972984314,1.0,0.38955682944707104,0.4163671965555603,-87.81940309080392,14.94351351080493,512.0166448822014,20.054950327303466,15.07854215152446,-19.455640398829075,-40.034961939465084,15.136280080633828,-19.915689189982775,-0.19891823762606273,-0.0025649104900024988,0.9800127325570416,-0.08946905970032275,0.0019549881707346703,0.9959876833463317,48.60055492260148,51.61913484341238,3.2450000551011935,3.4938231094415135
8541.0031925,16686226.0,1256664.0,1712336666624.0,-576.0,0.35315757989883423,176.0,0.10790925472974777,-15632.0,9.584303855895996,2719.0,3959.9794921875,2338.0,1712.820556640625,34694.0,548.8540649414062,1.821977972984314,1.0,0.38850989552944026,0.41479161015889676,-86.84592084014749,15.358533772300152,501.1850664163122,20.054950327303466,15.07854215152446,-19.455640398829075,-40.034961939465084,15.136280080633828,-19.915689189982775,-0.20113091462400826,-0.0010033988167968788,0.9795638561999541,-0.08946905970032275,0.0019549881707346703,0.9959876833463317,48.714656554683465,51.61913484341238,3.252036571288207,3.4938231094415135
8541.0704587,16686482.0,1256671.875,1712336666624.0,-576.0,0.35315757989883423,208.0,0.12752912938594818,-15664.0,9.603923797607422,2713.0,3951.240966796875,2319.0,1698.901123046875,34694.0,548.8540649414062,1.821977972984314,1.0,0.3879178738051058,0.41748551668906764,-90.09846452330635,14.563497065852154,517.0225245929676,20.054950327303466,15.07854215152446,-19.455640398829075,-40.034961939465084,15.136280080633828,-19.915689189982775,-0.20113091462400826,-0.0010033988167968788,0.9795638561999541,-0.09283607767675407,-0.0009991803852046185,0.9956809048687002,48.714656554683465,51.89161244929566,3.252036571288207,3.5104327368159733
8541.1381786,16686738.0,1256679.75,1712336666624.0,-544.0,0.3335376977920532,144.0,0.08828939497470856,-15616.0,9.574494361877441,2708.0,3943.958984375,2295.0,1681.3187255859375,34694.0,548.8540649414062,1.821977972984314,1.0,0.3868311496269186,0.4169824980827136,-89.03462465990793,14.480412265216955,505.6115860948937,20.054950327303466,15.07854215152446,-19.455640398829075,-40.034961939465084,15.136280080633828,-19.915689189982775,-0.2034192008020411,-0.001358778318712954,0.9790907937809136,-0.09283607767675407,-0.0009991803852046185,0.9956809048687002,48.82508305545122,51.89161244929566,3.2587789428021408,3.5104327368159733
8541.2056202,16686994.0,1256687.5,1712336666624.0,-512.0,0.3139178454875946,160.0,0.09809932857751846,-15632.0,9.584303855895996,2723.0,3965.80517578125,2322.0,1701.098876953125,34694.0,548.8540649414062,1.821977972984314,1.0,0.38728717474666596,0.41538681698434965,-89.46916006854478,15.362452205406878,510.28110505450957,20.054950327303466,15.07854215152446,-19.455640398829075,-40.034961939465084,15.136280080633828,-19.915689189982775,-0.20246821247461316,0.001948763914701731,0.979286896295738,-0.09283607767675407,-0.0009991803852046185,0.9956809048687002,48.62190289775454,51.89161244929566,3.2437746526885896,3.5104327368159733
8541.2727157,16687250.0,1256695.25,1712336666624.0,-544.0,0.3335376977920532,112.0,0.06866952776908875,-15680.0,9.613734245300293,2720.0,3961.435791015625,2326.0,1704.029296875,34694.0,548.8540649414062,1.821977972984314,1.0,0.38750460550570565,0.4141269916904373,-88.27371080815246,15.772994671838738,504.498258950659,20.054950327303466,15.07854215152446,-19.455640398829075,-40.066169114458226,15.234261000550552,-19.757475919543666,-0.20246821247461316,0.001948763914701731,0.979286896295738,-0.09156955333229565,0.00037248936683347174,0.9957986132517938,48.62190289775454,51.70747631578411,3.2437746526885896,3.4655908802451485
8541.3405606,16687506.0,1256703.125,1712336666624.0,-480.0,0.2942979633808136,144.0,0.08828939497470856,-15696.0,9.623543739318848,2712.0,3949.78466796875,2302.0,1686.4468994140625,34694.0,548.8540649414062,1.821977972984314,1.0,0.38824742382986743,0.416008319417442,-88.9902663663027,15.125328880213779,512.2724442117192,20.054950327303466,15.07854215152446,-19.455640398829075,-40.066169114458226,15.234261000550552,-19.757475919543666,-0.20089749398899792,-0.0004901811498319266,0.9796121460207509,-0.09156955333229565,0.00037248936683347174,0.9957986132517938,48.92600272910783,51.70747631578411,3.264814646898026,3.4655908802451485
8541.4077287,16687762.0,1256711.0,1712336666624.0,-528.0,0.3237277865409851,192.0,0.11771918833255768,-15648.0,9.594114303588867,2720.0,3961.435791015625,2320.0,1699.6336669921875,34694.0,548.8540649414062,1.821977972984314,1.0,0.3886412001527716,0.41433720367925897,-86.85008663041421,15.588152389943339,501.8418537956586,20.054950327303466,15.07854215152446,-19.455640398829075,-40.066169114458226,15.234261000550552,-19.757475919543666,-0.20089749398899792,-0.0004901811498319266,0.9796121460207509,-0.08933071856582986,0.0021235902054847744,0.9959997555648051,48.92600272910783,51.43873234643747,3.264814646898026,3.4482780401510595
8541.4756103,16688018.0,1256718.75,1712336666624.0,-544.0,0.3335376977920532,176.0,0.10790925472974777,-15648.0,9.594114303588867,2723.0,3965.80517578125,2329.0,1706.22705078125,34693.0,549.2957763671875,1.8205127716064453,1.0,0.388196320104673,0.4134253356230464,-86.44645615347397,15.868146249617432,497.35002706105604,20.054950327303466,15.07854215152446,-19.455640398829075,-40.066169114458226,15.234261000550552,-19.757475919543666,-0.20183719485172813,0.0005937446948599296,0.9794189064142181,-0.08933071856582986,0.0021235902054847744,0.9959997555648051,48.89297854562663,51.43873234643747,3.261868065855181,3.4482780401510595
8541.5427143,16688274.0,1256726.5,1712336666624.0,-608.0,0.37277743220329285,240.0,0.1471489816904068,-15680.0,9.613734245300293,2718.0,3958.523193359375,2332.0,1708.4249267578125,34695.0,548.4130249023438,1.8234431743621826,1.0,0.3882268278180586,0.4110637098644294,-86.33022972281323,16.931141039866866,496.7952779380709,20.054950327303466,15.07854215152446,-19.455640398829075,-40.066169114458226,15.234261000550552,-19.757475919543666,-0.20183719485172813,0.0005937446948599296,0.9794189064142181,-0.08919755090771563,0.006192809718711131,0.9959947018031037,48.89297854562663,51.785465502063374,3.261868065855181,3.471273760760287
8541.6097158,16688530.0,1256734.375,1712336666624.0,-528.0,0.3237277865409851,176.0,0.10790925472974777,-15632.0,9.584303855895996,2721.0,3962.892333984375,2327.0,1704.761962890625,34694.0,548.8540649414062,1.821977972984314,1.0,0.38844094826316156,0.4113746207271053,-86.52234457670764,16.86031429483034,498.93804656991665,20.054950327303466,15.07854215152446,-19.455640398829075,-40.066169114458226,15.234261000550552,-19.757475919543666,-0.2013854363744066,0.00029620427563643685,0.9795120306965693,-0.08919755090771563,0.006192809718711131,0.9959947018031037,48.929927596579496,51.785465502063374,3.264262667178215,3.471273760760287
8541.6777668,16688786.0,1256742.25,1712336666624.0,-560.0,0.3433476388454437,176.0,0.10790925472974777,-15664.0,9.603923797607422,2716.0,3955.6103515625,2324.0,1702.5640869140625,34695.0,548.4130249023438,1.8234431743621826,1.0,0.3879294511715715,0.41196214001277964,-89.32835412879655,17.046395705516034,512.5874210834068,20.054950327303466,15.07854215152446,-19.455640398829075,-40.066169114458226,15.234261000550552,-19.757475919543666,-0.2013854363744066,0.00029620427563643685,0.9795120306965693,-0.09213470201447087,0.006716193062636288,0.995723902211577,48.929927596579496,52.079783141347384,3.264262667178215,3.49096903167227
8541.7455929,16689042.0,1256750.0,1712336666624.0,-528.0,0.3237277865409851,192.0,0.11771918833255768,-15664.0,9.603923797607422,2724.0,3967.261474609375,2326.0,1704.029296875,34694.0,548.8540649414062,1.821977972984314,1.0,0.38808243727386965,0.411341546087299,-89.47438352682067,17.3924881097266,514.1748543221703,20.054950327303466,15.07854215152446,-19.455640398829075,-40.066169114458226,15.234261000550552,-19.757475919543666,-0.20106606280413078,0.0015563267340740511,0.9795764473666883,-0.09213470201447087,0.006716193062636288,0.995723902211577,48.81763345659624,52.079783141347384,3.256980071283445,3.49096903167227
8541.8125939,16689298.0,1256757.75,1712336666624.0,-480.0,0.2942979633808136,176.0,0.10790925472974777,-15680.0,9.613734245300293,2714.0,3952.697509765625,2322.0,1701.098876953125,34695.0,548.4130249023438,1.8234431743621826,1.0,0.38798570342275013,0.41112530542998627,-90.03133284310907,17.587733548547206,516.8894121193161,20.054950327303466,15.07854215152446,-19.455640398829075,-40.066169114458226,15.234261000550552,-19.757475919543666,-0.20106606280413078,0.0015563267340740511,0.9795764473666883,-0.09269605787556964,0.007392949106865626,0.9956670051567604,48.81763345659624,51.90690064506506,3.256980071283445,3.4803982473828494
8541.8806852,16689554.0,1256765.625,1712336666624.0,-544.0,0.3335376977920532,192.0,0.11771918833255768,-15664.0,9.603923797607422,2710.0,3946.871826171875,2296.0,1682.05126953125,34694.0,548.8540649414062,1.821977972984314,1.0,0.3876050527865563,0.4116076808970649,-89.65783190524998,17.224686703803517,512.868395011753,20.054950327303466,15.07854215152446,-19.455640398829075,-40.066169114458226,15.234261000550552,-19.757475919543666,-0.20186546500775507,0.00027651195474327723,0.9794132210555163,-0.09269605787556964,0.007392949106865626,0.9956670051567604,49.18511167596899,51.90690064506506,3.281677535603881,3.4803982473828494
8541.9485856,16689810.0,1256773.5,1712336666624.0,-560.0,0.3433476388454437,176.0,0.10790925472974777,-15728.0,9.643163681030273,2708.0,3943.958984375,2289.0,1676.923095703125,34695.0,548.4130249023438,1.8234431743621826,1.0,0.38768114966558115,0.41135961980132996,-89.2318918848067,17.27169967894377,510.8020422397883,20.054950327303466,15.07854215152446,-19.455640398829075,-40.066169114458226,15.234261000550552,-19.757475919543666,-0.20186546500775507,0.00027651195474327723,0.9794132210555163,-0.09226117185569016,0.007598038437280197,0.9957058531412379,49.18511167596899,52.17655751045298,3.281677535603881,3.4976540837596306
8542.0166563,16690066.0,1256781.25,1712336666624.0,-560.0,0.3433476388454437,208.0,0.12752912938594818,-15600.0,9.56468391418457,2725.0,3968.718017578125,2319.0,1698.901123046875,34694.0,548.8540649414062,1.821977972984314,1.0,0.38798420387320504,0.4112973343611983,-89.52679028651559,17.407542803337922,513.9878141875081,20.054950327303466,15.07854215152446,-19.455640398829075,-40.066169114458226,15.234261000550552,-19.757475919543666,-0.2012277113246069,0.0007328964292763468,0.9795442159789851,-0.09226117185569016,0.007598038437280197,0.9957058531412379,49.08447795205914,52.17655751045298,3.275084188127937,3.4976540837596306
8542.0838242,16690322.0,1256789.0,1712336666624.0,-528.0,0.3237277865409851,208.0,0.12752912938594818,-15584.0,9.554874420166016,2713.0,3951.240966796875,2312.0,1693.77294921875,34695.0,548.4130249023438,1.8234431743621826,1.0,0.38743785886805027,0.412508317215461,-92.70192882716645,17.342773402841097,529.4436372331527,20.054950327303466,15.07854215152446,-19.455640398829075,-40.066169114458226,15.234261000550552,-19.757475919543666,-0.2012277113246069,0.0007328964292763468,0.9795442159789851,-0.09539358766199547,0.007129387993638299,0.9954141024015127,49.08447795205914,52.43291900298061,3.275084188127937,3.5147484918769534
8542.1517607,16690578.0,1256796.875,1712336666624.0,-560.0,0.3433476388454437,176.0,0.10790925472974777,-15616.0,9.574494361877441,2718.0,3958.523193359375,2316.0,1696.7032470703125,34694.0,548.8540649414062,1.821977972984314,1.0,0.38759039474371726,0.4111338412732626,-91.81709143628413,17.866143133333296,525.1388813666135,20.054950327303466,15.07854215152446,-19.455640398829075,-40.066169114458226,15.234261000550552,-19.757475919543666,-0.2012277113246069,0.0007328964292763468,0.9795442159789851,-0.09453527806972375,0.009089292189726235,0.9954800178646329,49.08447795205914,51.973801348395035,3.275084188127937,3.484832169886734
8542.2188016,16690834.0,1256804.75,1712336666624.0,-496.0,0.3041079044342041,176.0,0.10790925472974777,-15664.0,9.603923797607422,2723.0,3965.80517578125,2333.0,1709.157470703125,34694.0,548.8540649414062,1.821977972984314,1.0,0.3870190218150917,0.40881523532478625,-91.2121373183177,18.76156454497766,518.7926910874733,20.054950327303466,15.07854215152446,-19.455640398829075,-40.066169114458226,15.234261000550552,-19.757475919543666,-0.20244200974424845,0.00413159455195267,0.9792855368160851,-0.09453527806972375,0.009089292189726235,0.9954800178646329,49.23319481971206,51.973801348395035,3.284705542100183,3.484832169886734
8542.2860328,16691090.0,1256812.5,1712336666624.0,-544.0,0.3335376977920532,176.0,0.10790925472974777,-15712.0,9.633354187011719,2723.0,3965.80517578125,2344.0,1717.216064453125,34695.0,548.4130249023438,1.8234431743621826,1.0,0.3871717573423612,0.4097737613504814,-91.37435438117717,18.36237013898662,520.4907440429195,20.054950327303466,15.07854215152446,-19.455640398829075,-40.066169114458226,15.234261000550552,-19.757475919543666,-0.20211605466382285,0.0026308915337265736,0.9793580442600491,-0.09453527806972375,0.009089292189726235,0.9954800178646329,49.51189550839353,51.973801348395035,3.3036016882434156,3.484832169886734
8542.3538524,16691346.0,1256820.25,1712336666624.0,-544.0,0.3335376977920532,192.0,0.11771918833255768,-15712.0,9.633354187011719,2719.0,3959.9794921875,2335.0,1710.6226806640625,34695.0,548.4130249023438,1.8234431743621826,1.0,0.3867831571482814,0.4100663123021744,-93.69698608110082,18.61797176286711,531.7460385880051,20.054950327303466,15.07854215152446,-19.455640398829075,-40.066169114458226,15.234261000550552,-19.757475919543666,-0.20211605466382285,0.0026308915337265736,0.9793580442600491,-0.09677614430364577,0.009764187741167576,0.9952582772986494,49.51189550839353,52.17703001552327,3.3036016882434156,3.4979574847890627
8542.4216135,16691602.0,1256828.125,1712336666624.0,-528.0,0.3237277865409851,192.0,0.11771918833255768,-15696.0,9.623543739318848,2719.0,3959.9794921875,2339.0,1713.5531005859375,34695.0,548.4130249023438,1.8234431743621826,1.0,0.3866841913653728,0.41017960598609127,-93.59121737161175,18.524533086874317,530.6462152326458,20.064176800924457,15.050647008284498,-19.51204431366605,-40.066169114458226,15.234261000550552,-19.757475919543666,-0.20232102873669705,0.0023691207330767488,0.9793163884046242,-0.09677614430364577,0.009764187741167576,0.9952582772986494,49.628318890589156,52.17703001552327,3.3229943553620336,3.4979574847890627
8542.4886653,16691858.0,1256836.0,1712336666624.0,-576.0,0.35315757989883423,128.0,0.07847946137189865,-15648.0,9.594114303588867,2715.0,3954.15380859375,2320.0,1699.6336669921875,34694.0,548.8540649414062,1.821977972984314,1.0,0.3864723962878947,0.40940792733045983,-94.91752522757992,19.131844254477194,537.0688119657914,20.064176800924457,15.050647008284498,-19.51204431366605,-40.066169114458226,15.234261000550552,-19.757475919543666,-0.20232102873669705,0.0023691207330767488,0.9793163884046242,-0.09801429736452877,0.011777274242479598,0.995115316595798,49.628318890589156,52.4153664234775,3.3229943553620336,3.514012644959626
8542.5555706,16692114.0,1256843.75,1712336666624.0,-544.0,0.3335376977920532,144.0,0.08828939497470856,-15632.0,9.584303855895996,2722.0,3964.3486328125,2337.0,1712.087890625,34695.0,548.4130249023438,1.8234431743621826,1.0,0.38622588171010735,0.4098918408737605,-94.64226920499895,18.7948594046239,534.265091527237,20.064176800924457,15.050647008284498,-19.51204431366605,-40.066169114458226,15.234261000550552,-19.757475919543666,-0.20283838450917377,0.001238802865238088,0.9792114455709603,-0.09801429736452877,0.011777274242479598,0.995115316595798,49.51741126925876,52.4153664234775,3.3150101911825347,3.514012644959626
8542.6233341,16692370.0,1256851.5,1712336666624.0,-592.0,0.36296749114990234,192.0,0.11771918833255768,-15664.0,9.603923797607422,2722.0,3964.3486328125,2330.0,1706.959716796875,34694.0,548.8540649414062,1.821977972984314,1.0,0.3861449746493244,0.40946495409137074,-95.1563853440185,19.093851743511557,536.7479362176007,20.064176800924457,15.050647008284498,-19.51204431366605,-40.066169114458226,15.234261000550552,-19.757475919543666,-0.20283838450917377,0.001238802865238088,0.9792114455709603,-0.0984894665295353,0.012779750857128304,0.9950560300559749,49.51741126925876,52.24431475506581,3.3150101911825347,3.5030996017649807
8542.6896943,16692626.0,1256859.375,1712336666624.0,-544.0,0.3335376977920532,160.0,0.09809932857751846,-15680.0,9.613734245300293,2721.0,3962.892333984375,2341.0,1715.018310546875,34695.0,548.4130249023438,1.8234431743621826,1.0,0.3854436606557906,0.4093166549168151,-94.36752269534081,18.886031003590162,528.7744348579279,20.064176800924457,15.050647008284498,-19.51204431366605,-40.066169114458226,15.234261000550552,-19.757475919543666,-0.2043159147779727,0.0006923273342934846,0.978904759234167,-0.0984894665295353,0.012779750857128304,0.9950560300559749,49.605316876816545,52.24431475506581,3.3212788473032906,3.5030996017649807
8542.7566552,16692882.0,1256867.25,1712336666624.0,-560.0,0.3433476388454437,144.0,0.08828939497470856,-15728.0,9.643163681030273,2724.0,3967.261474609375,2333.0,1709.157470703125,34694.0,548.8540649414062,1.821977972984314,1.0,0.38511481687372334,0.4104186107824406,-96.4030956344489,18.688800045858677,538.5269322763812,20.064176800924457,15.050647008284498,-19.51204431366605,-40.066169114458226,15.234261000550552,-19.757475919543666,-0.2043159147779727,0.0006923273342934846,0.978904759234167,-0.10037986704643792,0.01184574926236146,0.9948786662282758,49.605316876816545,52.459805541966276,3.3212788473032906,3.5167907315155036
8542.8236767,16693138.0,1256875.0,1712336666624.0,-544.0,0.3335376977920532,176.0,0.10790925472974777,-15616.0,9.574494361877441,2722.0,3964.3486328125,2344.0,1717.216064453125,34695.0,548.4130249023438,1.8234431743621826,1.0,0.4100205196033815,0.4117857810307951,-69.59396899871777,16.83425928975373,506.337152519012,nan,nan,nan,-2.0372345906234397,68.98071285986941,13.674149020500838,nan,nan,nan,-0.1351134688161887,-0.10429290714023134,0.9853260069970222,nan,52.459805541966276,nan,3.5167907315155036
8542.8916847,16693394.0,1256882.75,1712336666624.0,-576.0,0.35315757989883423,192.0,0.11771918833255768,-15680.0,9.613734245300293,2719.0,3959.9794921875,2331.0,1707.6922607421875,34695.0,548.4130249023438,1.8234431743621826,0.9812768697738647,0.38576189871525024,0.4107076031821665,-93.69555152028848,18.131835972703925,526.6118227481381,20.064176800924457,15.050647008284498,-19.51204431366605,-40.066169114458226,15.234261000550552,-19.757475919543666,-0.20393494889160454,0.0011803555753209063,0.9789837298858928,-0.09767083414194867,0.009620712004430366,0.99517227154827,49.71756874536205,52.76252885664707,3.328050156048931,3.537351416251429
8542.9585343,16693650.0,1256890.625,1712336666624.0,-528.0,0.3237277865409851,208.0,0.12752912938594818,-15712.0,9.633354187011719,2718.0,3958.523193359375,2332.0,1708.4249267578125,34695.0,548.4130249023438,1.8234431743621826,0.9625537395477295,0.3780895719028295,0.43424617141385435,-86.3365643318339,5.780511074151121,452.523674315286,73.41046841848055,39.9140588964597,-20.03932300944331,nan,nan,nan,-0.3194940655006289,-0.06826709564461714,0.9451259946494587,nan,nan,nan,49.71756874536205,nan,3.328050156048931,nan
8543.0256989,16693906.0,1256898.5,1712336666624.0,-528.0,0.3237277865409851,224.0,0.1373390555381775,-15712.0,9.633354187011719,2724.0,3967.261474609375,2332.0,1708.4249267578125,34694.0,548.8540649414062,1.821977972984314,0.9995915591716766,0.385815349188235,0.41149088787773347,-94.1215002303025,17.841428120409574,529.285408188705,20.064176800924457,15.050647008284498,-19.51204431366605,-40.066169114458226,15.234261000550552,-19.757475919543666,-0.20371230929493236,0.0003033510698412107,0.9790307467183317,-0.09796350274575209,0.009400789799585304,0.9951456060702509,49.9645218824471,53.3177689509313,3.344169795393968,3.5746059341339116
8543.0936931,16694162.0,1256906.25,1712336666624.0,-608.0,0.37277743220329285,160.0,0.09809932857751846,-15696.0,9.623543739318848,2725.0,3968.718017578125,2347.0,1719.4139404296875,34695.0,548.4130249023438,1.8234431743621826,1.0,0.3861014788303644,0.41211563553837516,-94.44316918301331,17.643287893993488,532.5458609263396,20.064176800924457,15.050647008284498,-19.51204431366605,-40.066169114458226,15.234261000550552,-19.757475919543666,-0.20310700782125898,-0.00046175572426896365,0.9791564380401868,-0.09796350274575209,0.009400789799585304,0.9951456060702509,49.847012909937916,53.3177689509313,3.336003428988788,3.5746059341339116
8543.1616327,16694418.0,1256914.0,1712336666624.0,-592.0,0.36296749114990234,112.0,0.06866952776908875,-15728.0,9.643163681030273,2721.0,3962.892333984375,2339.0,1713.5531005859375,34695.0,548.4130249023438,1.8234431743621826,1.0,0.38578154573697626,0.41320504898557253,-96.43454904557728,17.418405693515552,542.1449556601583,20.064176800924457,15.050647008284498,-19.51204431366605,-40.066169114458226,15.234261000550552,-19.757475919543666,-0.20310700782125898,-0.00046175572426896365,0.9791564380401868,-0.09980015278356984,0.008457054946581851,0.9949715612649471,49.847012909937916,53.26151119817008,3.336003428988788,3.5705411503807882
8543.2286934,16694674.0,1256921.875,1712336666624.0,-560.0,0.3433476388454437,160.0,0.09809932857751846,-15696.0,9.623543739318848,2708.0,3943.958984375,2305.0,1688.6446533203125,34695.0,548.4130249023438,1.8234431743621826,1.0,0.3859931896796031,0.41206336541249944,-95.11834656145056,17.777478154841713,535.801647540782,20.064176800924457,15.050647008284498,-19.51204431366605,-40.066169114458226,15.234261000550552,-19.757475919543666,-0.20310700782125898,-0.00046175572426896365,0.9791564380401868,-0.0985917388206924,0.009825067576699107,0.9950794626980429,49.847012909937916,52.93930604830829,3.336003428988788,3.549135702465728
8543.2966015,16694930.0,1256929.75,1712336666624.0,-560.0,0.3433476388454437,208.0,0.12752912938594818,-15696.0,9.623543739318848,2722.0,3964.3486328125,2323.0,1701.83154296875,34695.0,548.4130249023438,1.8234431743621826,1.0,0.3867710532359959,0.4111274423128446,-96.01106904023118,18.543360887067074,544.8327021690518,20.064176800924457,15.050647008284498,-19.51204431366605,-40.066169114458226,15.234261000550552,-19.757475919543666,-0.20147111058155487,0.0020692011519274096,0.9794922715405302,-0.0985917388206924,0.009825067576699107,0.9950794626980429,49.91076882741853,52.93930604830829,3.340183319800288,3.549135702465728
8543.3635198,16695186.0,1256937.5,1712336666624.0,-528.0,0.3237277865409851,208.0,0.12752912938594818,-15664.0,9.603923797607422,2724.0,3967.261474609375,2331.0,1707.6922607421875,34695.0,548.4130249023438,1.8234431743621826,1.0,0.38737480874519187,0.4080522185823574,-92.33917783464977,19.426641707404023,526.9839854828681,20.064176800924457,15.050647008284498,-19.51204431366605,-40.066169114458226,15.234261000550552,-19.757475919543666,-0.20147111058155487,0.0020692011519274096,0.9794922715405302,-0.09515211162784393,0.013406395564545216,0.9953724650655801,49.91076882741853,52.8622931180568,3.340183319800288,3.5440771459696014
8543.4306369,16695442.0,1256945.25,1712336666624.0,-528.0,0.3237277865409851,224.0,0.1373390555381775,-15664.0,9.603923797607422,2721.0,3962.892333984375,2337.0,1712.087890625,34695.0,548.4130249023438,1.8234431743621826,1.0,0.3870922359940981,0.4077850858339047,-92.03908573168431,19.441411346333588,523.8463973942754,20.064176800924457,15.050647008284498,-19.51204431366605,-40.066169114458226,15.234261000550552,-19.757475919543666,-0.20206782873244775,0.002211217069660026,0.9793690331588114,-0.09515211162784393,0.013406395564545216,0.9953724650655801,49.927030734596876,52.8622931180568,3.3412547397337597,3.5440771459696014
8543.4976948,16695698.0,1256953.125,1712336666624.0,-560.0,0.3433476388454437,176.0,0.10790925472974777,-15648.0,9.594114303588867,2708.0,3943.958984375,2298.0,1683.5164794921875,34694.0,548.8540649414062,1.821977972984314,1.0,0.38704080521981454,0.40867635059569163,-92.32693032722773,19.06187956048089,525.2405866579909,20.064176800924457,15.050647008284498,-19.51204431366605,-40.066169114458226,15.234261000550552,-19.757475919543666,-0.20206782873244775,0.002211217069660026,0.9793690331588114,-0.09543486018709688,0.01199087427633286,0.9953634544201222,49.927030734596876,53.29316754295649,3.3412547397337597,3.5731273192479325
8543.5655071,16695954.0,1256961.0,1712336666624.0,-528.0,0.3237277865409851,176.0,0.10790925472974777,-15664.0,9.603923797607422,2724.0,3967.261474609375,2327.0,1704.761962890625,34695.0,548.4130249023438,1.8234431743621826,0.99787837266922,0.3879055843092875,0.4096313651642052,-93.26505240421787,18.941456098752397,535.0179595836927,20.064176800924457,15.050647008284498,-19.51204431366605,-40.066169114458226,15.234261000550552,-19.757475919543666,-0.20023997861994497,0.001534762012151596,0.979745678973809,-0.09543486018709688,0.01199087427633286,0.9953634544201222,49.920033745210766,53.29316754295649,3.3408355624275328,3.5731273192479325
8543.6333201,16696210.0,1256968.75,1712336666624.0,-576.0,0.35315757989883423,144.0,0.08828939497470856,-15616.0,9.574494361877441,2723.0,3965.80517578125,2332.0,1708.4249267578125,34695.0,548.4130249023438,1.8234431743621826,1.0,0.38811312190648967,0.40992525030420457,-93.49572867968865,18.87997490931782,537.4211241908963,20.064176800924457,15.050647008284498,-19.51204431366605,-40.066169114458226,15.234261000550552,-19.757475919543666,-0.199800571069657,0.0012590423858749513,0.9798357753279421,-0.09543486018709688,0.01199087427633286,0.9953634544201222,50.09591424313795,53.29316754295649,3.3527397673164683,3.5731273192479325
8543.7006904,16696466.0,1256976.5,1712336666624.0,-560.0,0.3433476388454437,176.0,0.10790925472974777,-15616.0,9.574494361877441,2717.0,3957.066650390625,2333.0,1709.157470703125,34695.0,548.4130249023438,1.8234431743621826,1.0,0.3880408331794236,0.4106743135223311,-93.9267077508594,18.582155271302227,539.5335539056507,20.064176800924457,15.050647008284498,-19.51204431366605,-40.066169114458226,15.234261000550552,-19.757475919543666,-0.199800571069657,0.0012590423858749513,0.9798357753279421,-0.0958399496625584,0.010888650721089159,0.9953371998142904,50.09591424313795,53.502678749191546,3.3527397673164683,3.586544140639534
8543.7685394,16696722.0,1256984.375,1712336666624.0,-528.0,0.3237277865409851,176.0,0.10790925472974777,-15648.0,9.594114303588867,2719.0,3959.9794921875,2325.0,1703.2967529296875,34695.0,548.4130249023438,1.8234431743621826,1.0,0.3876486382171911,0.40928200758797906,-93.48182833049471,19.11186245540507,534.9306396555452,20.064176800924457,15.050647008284498,-19.51204431366605,-40.066169114458226,15.234261000550552,-19.757475919543666,-0.2006344396547459,0.003245221362777368,0.9796608036268127,-0.0958399496625584,0.010888650721089159,0.9953371998142904,49.98339368150023,53.502678749191546,3.345391330372731,3.586544140639534
8543.8363333,16696978.0,1256992.25,1712336666624.0,-544.0,0.3335376977920532,256.0,0.1569589227437973,-15680.0,9.613734245300293,2722.0,3964.3486328125,2340.0,1714.2857666015625,34695.0,548.4130249023438,1.8234431743621826,1.0,0.38846703852327774,0.4075845494367937,-88.716597796678,19.076979888168978,511.66268750276197,20.064176800924457,15.050647008284498,-19.51204431366605,-40.066169114458226,15.234261000550552,-19.757475919543666,-0.2006344396547459,0.003245221362777368,0.9796608036268127,-0.09115067158275714,0.0113811145538782,0.9957720749757567,49.98339368150023,53.1172645106797,3.345391330372731,3.5611026481910426
8543.9037308,16697234.0,1257000.0,1712336666624.0,-528.0,0.3237277865409851,256.0,0.1569589227437973,-15664.0,9.603923797607422,2723.0,3965.80517578125,2338.0,1712.820556640625,34695.0,548.4130249023438,1.8234431743621826,1.0,0.38917889487611473,0.40768159198346177,-89.41027539689789,19.30970434400647,519.2453020637897,20.064176800924457,15.050647008284498,-19.51204431366605,-40.066169114458226,15.234261000550552,-19.757475919543666,-0.19913311550648125,0.0038949378884464924,0.9799647094500533,-0.09115067158275714,0.0113811145538782,0.9957720749757567,50.010667278553505,53.1172645106797,3.3474456848175214,3.5611026481910426
8543.9716597,16697490.0,1257007.75,1712336666624.0,-512.0,0.3139178454875946,208.0,0.12752912938594818,-15648.0,9.594114303588867,2723.0,3965.80517578125,2352.0,1723.076904296875,34695.0,548.4130249023438,1.8234431743621826,0.9996134340763092,0.3887747468886819,0.4074095152527022,-91.77851135537395,19.87834265367588,530.9016413104403,20.064176800924457,15.050647008284498,-19.51204431366605,-40.066169114458226,15.234261000550552,-19.757475919543666,-0.19913311550648125,0.0038949378884464924,0.9799647094500533,-0.0934796824677955,0.013096372293160666,0.9955350491059967,50.010667278553505,53.401999139658116,3.3474456848175214,3.578734705333494
8544.038793,16697746.0,1257015.625,1712336666624.0,-576.0,0.35315757989883423,192.0,0.11771918833255768,-15648.0,9.594114303588867,2709.0,3945.415283203125,2309.0,1691.5750732421875,34695.0,548.4130249023438,1.8234431743621826,0.9992268681526184,0.4142253227585452,0.41073257848775946,-66.14471557439914,17.326095758865165,506.8496060477778,nan,nan,nan,-2.0372345906234397,68.98071285986941,13.674149020500838,nan,nan,nan,-0.12821496196755142,-0.10330923420200853,0.9863509140545539,nan,53.401999139658116,nan,3.578734705333494
8544.1067876,16698002.0,1257023.5,1712336666624.0,-576.0,0.35315757989883423,208.0,0.12752912938594818,-15680.0,9.613734245300293,2723.0,3965.80517578125,2337.0,1712.087890625,34695.0,548.4130249023438,1.8234431743621826,1.0,0.3879068396714235,0.40584501279973595,-91.63777936496919,20.44329631271352,525.6271369456299,20.064176800924457,15.050647008284498,-19.51204431366605,-40.066169114458226,15.234261000550552,-19.757475919543666,-0.2007338685477767,0.006589356945797409,0.9796236493638181,-0.09412583548866532,0.012609264423833684,0.9954804536223957,50.11626098575794,53.481517892345266,3.3537154390320003,3.583508676376265
8544.1737883,16698258.0,1257031.25,1712336666624.0,-544.0,0.3335376977920532,240.0,0.1471489816904068,-15728.0,9.643163681030273,2723.0,3965.80517578125,2340.0,1714.2857666015625,34695.0,548.4130249023438,1.8234431743621826,1.0,0.38779308790780115,0.4042095904706601,-92.3510033674267,21.377091437374727,529.1088940731944,20.064176800924457,15.050647008284498,-19.51204431366605,-40.066169114458226,15.234261000550552,-19.757475919543666,-0.2007338685477767,0.006589356945797409,0.9796236493638181,-0.09480886896943931,0.015847220275508132,0.9953693505298802,50.11626098575794,53.387297376389235,3.3537154390320003,3.577574863223292
8544.2410279,16698514.0,1257039.0,1712336666624.0,-560.0,0.3433476388454437,128.0,0.07847946137189865,-15680.0,9.613734245300293,2723.0,3965.80517578125,2348.0,1720.146484375,34696.0,547.9727172851562,1.8249083757400513,1.0,0.38756894961131516,0.4024834071338076,-92.10200411791743,22.11160215528109,526.513938574062,20.064176800924457,15.050647008284498,-19.51204431366605,-40.066169114458226,15.234261000550552,-19.757475919543666,-0.20121408653848696,0.009350547196067135,0.9795026588251899,-0.09480886896943931,0.015847220275508132,0.9953693505298802,50.08347522143011,53.387297376389235,3.3515587572680015,3.577574863223292
8544.3088413,16698770.0,1257046.875,1712336666624.0,-544.0,0.3335376977920532,160.0,0.09809932857751846,-15680.0,9.613734245300293,2709.0,3945.415283203125,2313.0,1694.5054931640625,34695.0,548.4130249023438,1.8234431743621826,1.0,0.3884340179018368,0.39952413537272113,-87.23877042138167,22.484779732482373,502.8384680624205,20.064176800924457,15.050647008284498,-19.51204431366605,-40.066169114458226,15.234261000550552,-19.757475919543666,-0.20121408653848696,0.009350547196067135,0.9795026588251899,-0.0898766118647296,0.018405321769378497,0.9957828271115557,50.08347522143011,53.2888992888166,3.3515587572680015,3.571725724232897
8544.3767546,16699026.0,1257054.75,1712336666624.0,-528.0,0.3237277865409851,112.0,0.06866952776908875,-15696.0,9.623543739318848,2723.0,3965.80517578125,2332.0,1708.4249267578125,34695.0,548.4130249023438,1.8234431743621826,0.9844457805156708,0.38779640580210606,0.397868319722988,-86.6532446312437,22.957268423881807,496.36540240322176,20.064176800924457,15.050647008284498,-19.51204431366605,-40.066169114458226,15.234261000550552,-19.757475919543666,-0.20256361737860745,0.01150284247343996,0.9792015448974354,-0.0898766118647296,0.018405321769378497,0.9957828271115557,50.3301326132887,53.2888992888166,3.3683765650007924,3.571725724232897
8544.4436199,16699282.0,1257062.5,1712336666624.0,-496.0,0.3041079044342041,144.0,0.08828939497470856,-15680.0,9.613734245300293,2723.0,3965.80517578125,2344.0,1717.216064453125,34695.0,548.4130249023438,1.8234431743621826,0.9844457805156708,0.3885961670459972,0.3956495947591313,-82.5926279776224,23.02059404548703,476.7347706895972,20.064176800924457,15.050647008284498,-19.51204431366605,-40.066169114458226,15.234261000550552,-19.757475919543666,-0.20256361737860745,0.01150284247343996,0.9792015448974354,-0.08531700125353511,0.019845956907693776,0.9961561861934716,50.3301326132887,53.672751500810904,3.3683765650007924,3.598454656007761
8544.5110731,16699538.0,1257070.25,1712336666624.0,-496.0,0.3041079044342041,144.0,0.08828939497470856,-15728.0,9.643163681030273,2723.0,3965.80517578125,2343.0,1716.4835205078125,34695.0,548.4130249023438,1.8234431743621826,1.0,0.3904375785617632,0.39712732151844066,-84.0925553262295,23.181226703860055,494.24340284497794,20.064176800924457,15.050647008284498,-19.51204431366605,-40.066169114458226,15.234261000550552,-19.757475919543666,-0.1986817741992586,0.011064873332481944,0.9800015924370586,-0.08531700125353511,0.019845956907693776,0.9961561861934716,50.097510849099486,53.672751500810904,3.352941487538054,3.598454656007761
8544.5775276,16699794.0,1257078.125,1712336666624.0,-496.0,0.3041079044342041,144.0,0.08828939497470856,-15632.0,9.584303855895996,2708.0,3943.958984375,2311.0,1693.040283203125,34696.0,547.9727172851562,1.8249083757400513,1.0,0.3923810263286219,0.3958031669507285,-75.00892041037672,21.618053708493026,449.4402879542954,20.064176800924457,15.050647008284498,-19.51204431366605,-40.066169114458226,15.234261000550552,-19.757475919543666,-0.1986817741992586,0.011064873332481944,0.9800015924370586,-0.07425236419155389,0.016225875147966952,0.9971074703298776,50.097510849099486,54.05904538405164,3.352941487538054,3.624781331507397
8544.645591,16700050.0,1257086.0,1712336666624.0,-528.0,0.3237277865409851,192.0,0.11771918833255768,-15584.0,9.554874420166016,2724.0,3967.261474609375,2321.0,1700.3663330078125,34695.0,548.4130249023438,1.8234431743621826,1.0,0.3981696239676621,0.3989603331510262,-78.93173110829034,22.659318132459077,502.12410206572986,20.064176800924457,15.050647008284498,-19.51204431366605,-40.066169114458226,15.234261000550552,-19.757475919543666,-0.18643848052751033,0.012289735939283196,0.9823897675409369,-0.07425236419155389,0.016225875147966952,0.9971074703298776,50.18176549640093,54.05904538405164,3.356484591943024,3.624781331507397
8544.7133952,16700306.0,1257093.75,1712336666624.0,-512.0,0.3139178454875946,160.0,0.09809932857751846,-15632.0,9.584303855895996,2696.0,3926.48193359375,2275.0,1666.6666259765625,34697.0,547.5330810546875,1.82637357711792,0.9930490255355835,0.40268133202178386,0.40155203432800324,-82.67526552271713,23.586520100232793,552.3980030663477,20.064176800924457,15.050647008284498,-19.51204431366605,-40.066169114458226,15.234261000550552,-19.757475919543666,-0.17679819147053005,0.013018578049893287,0.9841610214382139,-0.07425236419155389,0.016225875147966952,0.9971074703298776,50.27624358540764,54.05904538405164,3.3607335716979465,3.624781331507397
8544.7803823,16700562.0,1257101.5,1712336666624.0,-544.0,0.3335376977920532,176.0,0.10790925472974777,-15632.0,9.584303855895996,2720.0,3961.435791015625,2294.0,1680.5860595703125,34695.0,548.4130249023438,1.8234431743621826,0.9930490255355835,0.40441527686710765,0.4019969879770019,-73.96027461021626,21.30063177655216,503.8784963982797,20.064176800924457,15.050647008284498,-19.51204431366605,-40.066169114458226,15.234261000550552,-19.757475919543666,-0.17679819147053005,0.013018578049893287,0.9841610214382139,-0.06459275857513327,0.010293912719016021,0.9978586126804678,50.27624358540764,54.65869527154312,3.3607335716979465,3.6634589891893308
8544.8486626,16700818.0,1257109.375,1712336666624.0,-512.0,0.3139178454875946,176.0,0.10790925472974777,-15632.0,9.584303855895996,2707.0,3942.502685546875,2295.0,1681.3187255859375,34696.0,547.9727172851562,1.8249083757400513,1.0,0.4049874515740132,0.4018991884867863,-74.34128104724407,21.59289217311678,509.7725525819137,20.064176800924457,15.050647008284498,-19.51204431366605,-40.066169114458226,15.234261000550552,-19.757475919543666,-0.1755745065502567,0.013855776825804238,0.9843686352673917,-0.06459275857513327,0.010293912719016021,0.9978586126804678,50.24426957852373,54.65869527154312,3.3575467005738524,3.6634589891893308
8544.9166248,16701074.0,1257117.25,1712336666624.0,-608.0,0.37277743220329285,208.0,0.12752912938594818,-15664.0,9.603923797607422,2722.0,3964.3486328125,2311.0,1693.040283203125,34696.0,547.9727172851562,1.8249083757400513,1.0,0.4054023788809812,0.4006816412810418,-72.4742487258568,21.705991759758703,499.30667687503444,20.064176800924457,15.050647008284498,-19.51204431366605,-40.066169114458226,15.234261000550552,-19.757475919543666,-0.1755745065502567,0.013855776825804238,0.9843686352673917,-0.062313197974530915,0.011214651635998054,0.9979936357246324,50.24426957852373,54.021566046126445,3.3575467005738524,3.6196113264789096
8544.9841944,16701330.0,1257125.0,1712336666624.0,-528.0,0.3237277865409851,208.0,0.12752912938594818,-15648.0,9.594114303588867,2719.0,3959.9794921875,2330.0,1706.959716796875,34696.0,547.9727172851562,1.8249083757400513,1.0,0.40459933594926767,0.40281175707661554,-76.16459176675855,21.59188356156521,519.9939983025102,20.064176800924457,15.050647008284498,-19.51204431366605,-40.066169114458226,15.234261000550552,-19.757475919543666,-0.1755745065502567,0.013855776825804238,0.9843686352673917,-0.06673186217068545,0.009831170247286868,0.9977225098507106,50.24426957852373,54.26297871688667,3.3575467005738524,3.63608837950406
8545.0507016,16701586.0,1257132.75,1712336666624.0,-512.0,0.3139178454875946,176.0,0.10790925472974777,-15648.0,9.594114303588867,2722.0,3964.3486328125,2327.0,1704.761962890625,34696.0,547.9727172851562,1.8249083757400513,1.0,0.40284737368158474,0.4032661046510656,-74.94147642014339,20.630064322431576,501.6801021486183,20.064176800924457,15.050647008284498,-19.51204431366605,-40.066169114458226,15.234261000550552,-19.757475919543666,-0.17931874301405348,0.011024127701433501,0.9837292600163332,-0.06673186217068545,0.009831170247286868,0.9977225098507106,50.502156783090456,54.26297871688667,3.3756561549269004,3.63608837950406
8545.1176438,16701842.0,1257140.625,1712336666624.0,-512.0,0.3139178454875946,144.0,0.08828939497470856,-15616.0,9.574494361877441,2708.0,3943.958984375,2305.0,1688.6446533203125,34696.0,547.9727172851562,1.8249083757400513,1.0,0.40241758940049105,0.4043840830913574,-76.95405618157463,20.55941064436101,512.7194778855057,20.064176800924457,15.050647008284498,-19.51204431366605,-40.066169114458226,15.234261000550552,-19.757475919543666,-0.17931874301405348,0.011024127701433501,0.9837292600163332,-0.06910952931696124,0.00913416711022585,0.9975672608645447,50.502156783090456,54.09073659933589,3.3756561549269004,3.6238142321172258
8545.1845104,16702098.0,1257148.5,1712336666624.0,-560.0,0.3433476388454437,176.0,0.10790925472974777,-15664.0,9.603923797607422,2723.0,3965.80517578125,2323.0,1701.83154296875,34696.0,547.9727172851562,1.8249083757400513,1.0,0.40273839161451985,0.4051173085784575,-77.19280653410225,20.348129705652816,516.1573652595802,20.064176800924457,15.050647008284498,-19.51204431366605,-40.066169114458226,15.234261000550552,-19.757475919543666,-0.17863137631134307,0.010114823246960135,0.9838640768662092,-0.06910952931696124,0.00913416711022585,0.9975672608645447,50.3133230888126,54.09073659933589,3.3625258483072455,3.6238142321172258
8545.2517984,16702354.0,1257156.25,1712336666624.0,-560.0,0.3433476388454437,176.0,0.10790925472974777,-15696.0,9.623543739318848,2723.0,3965.80517578125,2342.0,1715.7509765625,34696.0,547.9727172851562,1.8249083757400513,1.0,0.4030486559865132,0.40648043576554194,-77.42960008908486,19.830226389028912,519.5556747944779,20.064176800924457,15.050647008284498,-19.51204431366605,-40.066169114458226,15.234261000550552,-19.757475919543666,-0.17796423964293534,0.008091536785165864,0.9840036872089282,-0.06910952931696124,0.00913416711022585,0.9975672608645447,50.472970956133445,54.09073659933589,3.373313454850755,3.6238142321172258
8545.3195387,16702610.0,1257164.0,1712336666624.0,-544.0,0.3335376977920532,160.0,0.09809932857751846,-15664.0,9.603923797607422,2721.0,3962.892333984375,2336.0,1711.3553466796875,34696.0,547.9727172851562,1.8249083757400513,1.0,0.40325692125503443,0.40768667906431544,-76.39635171665685,19.04183532968205,513.8355862759416,20.064176800924457,15.050647008284498,-19.51204431366605,-40.066169114458226,15.234261000550552,-19.757475919543666,-0.17796423964293534,0.008091536785165864,0.9840036872089282,-0.06792917287330137,0.006391135882174344,0.9976696752206538,50.472970956133445,54.09866414488401,3.373313454850755,3.623602017330007
8545.3878471,16702866.0,1257171.875,1712336666624.0,-480.0,0.2942979633808136,128.0,0.07847946137189865,-15680.0,9.613734245300293,2708.0,3943.958984375,2303.0,1687.179443359375,34696.0,547.9727172851562,1.8249083757400513,1.0,0.4035190671848333,0.40836944300405675,-76.58901164914049,18.82136701948129,516.6560845957647,20.064176800924457,15.050647008284498,-19.51204431366605,-40.066169114458226,15.234261000550552,-19.757475919543666,-0.17740197909500727,0.007201468193581895,0.9841121260654354,-0.06792917287330137,0.006391135882174344,0.9976696752206538,50.54259845697659,54.09866414488401,3.378326640257066,3.623602017330007
8545.4556761,16703122.0,1257179.75,1712336666624.0,-512.0,0.3139178454875946,192.0,0.11771918833255768,-15776.0,9.672593116760254,2724.0,3967.261474609375,2325.0,1703.2967529296875,34696.0,547.9727172851562,1.8249083757400513,1.0,0.4038218286680423,0.40902312610317837,-75.13524881861817,18.22090862848389,508.58510181687734,20.064176800924457,15.050647008284498,-19.51204431366605,-40.066169114458226,15.234261000550552,-19.757475919543666,-0.17740197909500727,0.007201468193581895,0.9841121260654354,-0.06623278057455752,0.00434673119788287,0.9977947307463875,50.54259845697659,54.18445612539851,3.378326640257066,3.6297013994134697
8545.5233923,16703378.0,1257187.5,1712336666624.0,-592.0,0.36296749114990234,144.0,0.08828939497470856,-15696.0,9.623543739318848,2723.0,3965.80517578125,2336.0,1711.3553466796875,34695.0,548.4130249023438,1.8234431743621826,1.0,0.40380506586383885,0.410132235981851,-75.1943343554662,17.714338245451028,508.90582922598196,20.064176800924457,15.050647008284498,-19.51204431366605,-40.066169114458226,15.234261000550552,-19.757475919543666,-0.17740197909500727,0.007201468193581895,0.9841121260654354,-0.06630692586641233,0.002440211236589518,0.9977962903074289,50.54259845697659,54.24123041948677,3.378326640257066,3.6329367696498895
8545.5907219,16703634.0,1257195.25,1712336666624.0,-576.0,0.35315757989883423,208.0,0.12752912938594818,-15712.0,9.633354187011719,2723.0,3965.80517578125,2347.0,1719.4139404296875,34696.0,547.9727172851562,1.8249083757400513,1.0,0.4050956325334917,0.41247592848902415,-76.11749007624002,17.067588822321603,522.7698248682902,20.064176800924457,15.050647008284498,-19.51204431366605,-40.066169114458226,15.234261000550552,-19.757475919543666,-0.17463495840347368,0.004593745220934991,0.9846225311297027,-0.06630692586641233,0.002440211236589518,0.9977962903074289,50.55644731049672,54.24123041948677,3.3789050824846374,3.6329367696498895
8545.6585392,16703890.0,1257203.125,1712336666624.0,-560.0,0.3433476388454437,224.0,0.1373390555381775,-15680.0,9.613734245300293,2709.0,3945.415283203125,2308.0,1690.842529296875,34696.0,547.9727172851562,1.8249083757400513,1.0,0.40451032326471925,0.4141655379857966,-79.0182604390896,16.76782219877112,539.1190092055479,20.064176800924457,15.050647008284498,-19.51204431366605,-40.066169114458226,15.234261000550552,-19.757475919543666,-0.17463495840347368,0.004593745220934991,0.9846225311297027,-0.06953292397368334,0.00117024992235651,0.997578970808221,50.55644731049672,54.03826217606052,3.3789050824846374,3.6196361748061188
8545.7255278,16704146.0,1257211.0,1712336666624.0,-576.0,0.35315757989883423,208.0,0.12752912938594818,-15664.0,9.603923797607422,2723.0,3965.80517578125,2337.0,1712.087890625,34697.0,547.5330810546875,1.82637357711792,1.0,0.4049694676674324,0.4156086153367613,-79.40032076970031,16.215007712615765,544.5775094638764,20.064176800924457,15.050647008284498,-19.51204431366605,-40.066169114458226,15.234261000550552,-19.757475919543666,-0.1736465578844957,0.0025961994619157925,0.9848046165017812,-0.06953292397368334,0.00117024992235651,0.997578970808221,50.60944075348675,54.03826217606052,3.382459051727116,3.6196361748061188
8545.7930153,16704402.0,1257218.75,1712336666624.0,-560.0,0.3433476388454437,160.0,0.09809932857751846,-15584.0,9.554874420166016,2722.0,3964.3486328125,2331.0,1707.6922607421875,34695.0,548.4130249023438,1.8234431743621826,1.0,0.40604281749669263,0.417244269468675,-80.31552610862846,15.765062349616507,557.6879995795705,20.064176800924457,15.050647008284498,-19.51204431366605,-40.066169114458226,15.234261000550552,-19.757475919543666,-0.1713369890542946,0.0009661701232025509,0.9852120090097874,-0.06953292397368334,0.00117024992235651,0.997578970808221,50.678148438269105,54.03826217606052,3.3873457949635366,3.6196361748061188
8545.860769,16704658.0,1257226.5,1712336666624.0,-608.0,0.37277743220329285,176.0,0.10790925472974777,-15616.0,9.574494361877441,2723.0,3965.80517578125,2349.0,1720.879150390625,34696.0,547.9727172851562,1.8249083757400513,1.0,0.40574777803089523,0.4193595337144742,-81.89313834086296,14.922833899674481,566.744138170448,20.064176800924457,15.050647008284498,-19.51204431366605,-40.066169114458226,15.234261000550552,-19.757475919543666,-0.1713369890542946,0.0009661701232025509,0.9852120090097874,-0.07113891030439098,-0.0017106071307415479,0.9974649513962625,50.678148438269105,54.548015149043266,3.3873457949635366,3.653149367500734
8545.9279503,16704914.0,1257234.375,1712336666624.0,-544.0,0.3335376977920532,176.0,0.10790925472974777,-15696.0,9.623543739318848,2715.0,3954.15380859375,2323.0,1701.83154296875,34695.0,548.4130249023438,1.8234431743621826,0.9963875710964203,0.40628461747110983,0.4169515030245816,-79.0341909506929,15.70368333823578,550.3192354609364,20.064176800924457,15.050647008284498,-19.51204431366605,-40.066169114458226,15.234261000550552,-19.757475919543666,-0.1713369890542946,0.0009661701232025509,0.9852120090097874,-0.06819609046862038,0.000984419276691391,0.9976714510115459,50.678148438269105,54.101721418456414,3.3873457949635366,3.6242412592398434
8545.9956082,16705170.0,1257242.25,1712336666624.0,-560.0,0.3433476388454437,160.0,0.09809932857751846,-15680.0,9.613734245300293,2717.0,3957.066650390625,2329.0,1706.22705078125,34696.0,547.9727172851562,1.8249083757400513,0.9963875710964203,0.406883824045678,0.41816823537717374,-79.5419369445757,15.290959371760072,557.7284101338412,20.064176800924457,15.050647008284498,-19.51204431366605,-40.066169114458226,15.234261000550552,-19.757475919543666,-0.17004531550688506,-0.00047621718091159546,0.9854361287731238,-0.06819609046862038,0.000984419276691391,0.9976714510115459,50.83936888128262,54.101721418456414,3.3974441692077066,3.6242412592398434
8546.0632247,16705426.0,1257250.0,1712336666624.0,-512.0,0.3139178454875946,208.0,0.12752912938594818,-15648.0,9.594114303588867,2697.0,3927.9384765625,2270.0,1663.003662109375,34696.0,547.9727172851562,1.8249083757400513,0.9963875710964203,0.40676246858566056,0.4174357487364807,-79.43574094626194,15.622664482389041,556.1898388299344,20.064176800924457,15.050647008284498,-19.51204431366605,-40.066169114458226,15.234261000550552,-19.757475919543666,-0.17030831431242124,0.0006674678906283917,0.9853905989822901,-0.06819609046862038,0.000984419276691391,0.9976714510115459,50.74362236871485,54.101721418456414,3.3912762932978833,3.6242412592398434
8546.1311354,16705682.0,1257257.75,1712336666624.0,-512.0,0.3139178454875946,160.0,0.09809932857751846,-15696.0,9.623543739318848,2724.0,3967.261474609375,2315.0,1695.970703125,34697.0,547.5330810546875,1.82637357711792,1.0,0.40665325792012014,0.4136020174424754,-80.08657933448877,17.698112088610355,559.9833545656654,20.064176800924457,15.050647008284498,-19.51204431366605,-40.066169114458226,15.234261000550552,-19.757475919543666,-0.17030831431242124,0.0006674678906283917,0.9853905989822901,-0.06885476239772145,0.008074045695898273,0.9975940213740527,50.74362236871485,54.06126260625299,3.3912762932978833,3.6226786360298373
8546.1986954,16705938.0,1257265.625,1712336666624.0,-512.0,0.3139178454875946,160.0,0.09809932857751846,-15696.0,9.623543739318848,2719.0,3959.9794921875,2318.0,1698.16845703125,34696.0,547.9727172851562,1.8249083757400513,1.0,0.40610605177872977,0.41468220283207047,-79.62465055770514,16.939513208184707,553.2587617065019,20.064176800924457,15.050647008284498,-19.51204431366605,-40.066169114458226,15.234261000550552,-19.757475919543666,-0.1714814230597935,-0.0018563720137450483,0.9851856045580115,-0.06885476239772145,0.008074045695898273,0.9975940213740527,50.997403857227,54.06126260625299,3.4082663239097384,3.6226786360298373
8546.2656152,16706194.0,1257273.5,1712336666624.0,-544.0,0.3335376977920532,208.0,0.12752912938594818,-15616.0,9.574494361877441,2724.0,3967.261474609375,2335.0,1710.6226806640625,34696.0,547.9727172851562,1.8249083757400513,1.0,0.4060857574138554,0.41528500535802093,-79.72280799784315,16.650595782309026,553.8197438984879,20.064176800924457,15.050647008284498,-19.51204431366605,-40.066169114458226,15.234261000550552,-19.757475919543666,-0.1714814230597935,-0.0018563720137450483,0.9851856045580115,-0.06895943845460613,0.007069004094322367,0.9975944191048485,50.997403857227,54.462590647167644,3.4082663239097384,3.6498390987948555
8546.3328325,16706450.0,1257281.25,1712336666624.0,-544.0,0.3335376977920532,192.0,0.11771918833255768,-15680.0,9.613734245300293,2725.0,3968.718017578125,2341.0,1715.018310546875,34696.0,547.9727172851562,1.8249083757400513,1.0,0.40686692125828616,0.41520453169540095,-75.74105434727818,15.999101140487738,530.935406637508,20.064176800924457,15.050647008284498,-19.51204431366605,-40.066169114458226,15.234261000550552,-19.757475919543666,-0.1714814230597935,-0.0018563720137450483,0.9851856045580115,-0.06463496860811438,0.004939852387584246,0.9978967475101905,50.997403857227,54.86296636260381,3.4082663239097384,3.677012756455949
8546.4006938,16706706.0,1257289.0,1712336666624.0,-528.0,0.3237277865409851,192.0,0.11771918833255768,-15664.0,9.603923797607422,2723.0,3965.80517578125,2349.0,1720.879150390625,34697.0,547.5330810546875,1.82637357711792,1.0,0.40718373264317415,0.4155551240291616,-75.97552451654184,15.935158048376042,534.5513771127136,20.064176800924457,15.050647008284498,-19.51204431366605,-40.066169114458226,15.234261000550552,-19.757475919543666,-0.17080012906489067,-0.0021051150706477744,0.9853034478788532,-0.06463496860811438,0.004939852387584246,0.9978967475101905,50.97419688298569,54.86296636260381,3.406526861257393,3.677012756455949
8546.4678287,16706962.0,1257296.875,1712336666624.0,-576.0,0.35315757989883423,256.0,0.1569589227437973,-15680.0,9.613734245300293,2710.0,3946.871826171875,2315.0,1695.970703125,34696.0,547.9727172851562,1.8249083757400513,1.0,0.40740660216111235,0.41400612811973825,-74.91335191735025,16.502427395660455,528.4304582524314,20.064176800924457,15.050647008284498,-19.51204431366605,-40.066169114458226,15.234261000550552,-19.757475919543666,-0.17080012906489067,-0.0021051150706477744,0.9853034478788532,-0.0634245868919166,0.007024349317479043,0.9979619132483243,50.97419688298569,54.51940906032533,3.406526861257393,3.6531990167291997
8546.5357933,16707218.0,1257304.75,1712336666624.0,-560.0,0.3433476388454437,176.0,0.10790925472974777,-15696.0,9.623543739318848,2724.0,3967.261474609375,2328.0,1705.4945068359375,34696.0,547.9727172851562,1.8249083757400513,1.0,0.40747406870160374,0.4147774087385947,-74.96473264633741,16.15262995010954,529.2207795904274,20.064176800924457,15.050647008284498,-19.51204431366605,-40.066169114458226,15.234261000550552,-19.757475919543666,-0.17065252987434765,-0.003376129581446177,0.9853254872358342,-0.0634245868919166,0.007024349317479043,0.9979619132483243,51.13134434738939,54.51940906032533,3.4170387823207253,3.6531990167291997
8546.6037063,16707474.0,1257312.5,1712336666624.0,-608.0,0.37277743220329285,176.0,0.10790925472974777,-15712.0,9.633354187011719,2724.0,3967.261474609375,2338.0,1712.820556640625,34696.0,547.9727172851562,1.8249083757400513,1.0,0.432279731132688,0.4183650991258848,-51.23946938341723,13.777550290508344,508.1756666458116,nan,nan,nan,-2.0372345906234397,68.98071285986941,13.674149020500838,nan,nan,nan,-0.09840446958558761,-0.11040632513872213,0.9890030352506214,nan,54.51940906032533,nan,3.6531990167291997
8546.6714737,16707730.0,1257320.25,1712336666624.0,-528.0,0.3237277865409851,144.0,0.08828939497470856,-15728.0,9.643163681030273,2725.0,3968.718017578125,2342.0,1715.7509765625,34696.0,547.9727172851562,1.8249083757400513,1.0,0.40752065978807683,0.41438079579701736,-74.82702403394295,16.323618371710268,528.5312928438095,20.064176800924457,15.050647008284498,-19.51204431366605,-40.066169114458226,15.234261000550552,-19.757475919543666,-0.1706206828805699,-0.003164219705846982,0.9853317057148934,-0.0632540230449324,0.007435700002781683,0.9979697585268302,51.04440322085464,54.68261155790716,3.411073405807569,3.664620391726501
8546.7387215,16707986.0,1257328.125,1712336666624.0,-592.0,0.36296749114990234,208.0,0.12752912938594818,-15696.0,9.623543739318848,2709.0,3945.415283203125,2317.0,1697.4359130859375,34697.0,547.5330810546875,1.82637357711792,1.0,0.40728975182756244,0.41625992061492123,-75.92305932619084,15.598186911458829,534.8527109352585,20.064176800924457,15.050647008284498,-19.51204431366605,-40.066169114458226,15.234261000550552,-19.757475919543666,-0.1706206828805699,-0.003164219705846982,0.9853317057148934,-0.0645045118982401,0.004792229378919383,0.9979059086318457,51.04440322085464,55.369830681873374,3.411073405807569,3.71045504440781
8546.80638,16708242.0,1257336.0,1712336666624.0,-560.0,0.3433476388454437,192.0,0.11771918833255768,-15664.0,9.603923797607422,2706.0,3941.046142578125,2286.0,1674.7252197265625,34696.0,547.9727172851562,1.8249083757400513,1.0,0.40689447878735807,0.4159545814616833,-75.63185761516189,15.616627144745033,530.3496829531684,20.064176800924457,15.050647008284498,-19.51204431366605,-40.066169114458226,15.234261000550552,-19.757475919543666,-0.17147026817340072,-0.0030845461276542184,0.9851844663349745,-0.0645045118982401,0.004792229378919383,0.9979059086318457,51.2175888259353,55.369830681873374,3.422261358896942,3.71045504440781
8546.8743392,16708498.0,1257343.75,1712336666624.0,-496.0,0.3041079044342041,160.0,0.09809932857751846,-15664.0,9.603923797607422,2723.0,3965.80517578125,2327.0,1704.761962890625,34697.0,547.5330810546875,1.82637357711792,1.0,0.4073942395799638,0.4153228015040489,-73.26716305831056,15.514210137138047,516.761174145923,20.064176800924457,15.050647008284498,-19.51204431366605,-40.066169114458226,15.234261000550552,-19.757475919543666,-0.17147026817340072,-0.0030845461276542184,0.9851844663349745,-0.061751614799521695,0.0044569421215652025,0.9980815967327403,51.2175888259353,54.65823103626725,3.422261358896942,3.662275908395772
8546.9414255,16708754.0,1257351.5,1712336666624.0,-544.0,0.3335376977920532,160.0,0.09809932857751846,-15696.0,9.623543739318848,2723.0,3965.80517578125,2332.0,1708.4249267578125,34697.0,547.5330810546875,1.82637357711792,1.0,0.407496827015315,0.41453487390155586,-73.33188921653982,15.919982922270645,517.8282071726749,20.064176800924457,15.050647008284498,-19.51204431366605,-40.066169114458226,15.234261000550552,-19.757475919543666,-0.1712529867620451,-0.0015898844164503611,0.9852258049770221,-0.061751614799521695,0.0044569421215652025,0.9980815967327403,51.13656720680518,54.65823103626725,3.41665679590039,3.662275908395772
8547.0088064,16709010.0,1257359.375,1712336666624.0,-576.0,0.35315757989883423,192.0,0.11771918833255768,-15728.0,9.643163681030273,2709.0,3945.415283203125,2314.0,1695.238037109375,34697.0,547.5330810546875,1.82637357711792,1.0,0.40798444570264747,0.41413121137376496,-71.13088016848945,15.715947373119617,505.1625181695515,20.064176800924457,15.050647008284498,-19.51204431366605,-40.066169114458226,15.234261000550552,-19.757475919543666,-0.1712529867620451,-0.0015898844164503611,0.9852258049770221,-0.05906759534492595,0.0037552034553093943,0.9982469221726543,51.13656720680518,54.43985294079196,3.41665679590039,3.647177451472204
8547.0765746,16709266.0,1257367.25,1712336666624.0,-544.0,0.3335376977920532,192.0,0.11771918833255768,-15696.0,9.623543739318848,2724.0,3967.261474609375,2321.0,1700.3663330078125,34696.0,547.9727172851562,1.8249083757400513,0.9480452239513397,0.4072659080813416,0.41290229550698854,-70.69763103639701,16.052118746633003,497.8597875141661,20.064176800924457,15.050647008284498,-19.51204431366605,-40.066169114458226,15.234261000550552,-19.757475919543666,-0.17279584963589353,-0.0002713579553389846,0.984957623816106,-0.05906759534492595,0.0037552034553093943,0.9982469221726543,51.3038433670012,54.43985294079196,3.4280955714300356,3.647177451472204
8547.1436376,16709522.0,1257375.0,1712336666624.0,-512.0,0.3139178454875946,160.0,0.09809932857751846,-15696.0,9.623543739318848,2724.0,3967.261474609375,2340.0,1714.2857666015625,34697.0,547.5330810546875,1.82637357711792,0.9480452239513397,0.40726938299988735,0.41282966065348303,-70.68362939963488,16.082703096464243,497.78039854372014,20.064176800924457,15.050647008284498,-19.51204431366605,-40.066169114458226,15.234261000550552,-19.757475919543666,-0.17279584963589353,-0.0002713579553389846,0.984957623816106,-0.05904951995944471,0.0038729657562676175,0.9982475416091993,51.3038433670012,55.065778615414295,3.4280955714300356,3.689352711108535
8547.2114936,16709778.0,1257382.75,1712336666624.0,-560.0,0.3433476388454437,144.0,0.08828939497470856,-15680.0,9.613734245300293,2723.0,3965.80517578125,2338.0,1712.820556640625,34696.0,547.9727172851562,1.8249083757400513,1.0,0.4079486312182844,0.4125489317014399,-71.08708472533397,16.43116627940576,504.6175993479935,20.064176800924457,15.050647008284498,-19.51204431366605,-40.066169114458226,15.234261000550552,-19.757475919543666,-0.17134212432807186,0.0010005437377943547,0.9852110816180318,-0.05904951995944471,0.0038729657562676175,0.9982475416091993,51.32752727237612,55.065778615414295,3.4298495616352254,3.689352711108535
8547.2787629,16710034.0,1257390.625,1712336666624.0,-528.0,0.3237277865409851,160.0,0.09809932857751846,-15632.0,9.584303855895996,2708.0,3943.958984375,2309.0,1691.5750732421875,34697.0,547.5330810546875,1.82637357711792,1.0,0.4076828114598925,0.41438452153078775,-72.2464707875866,15.788350979039755,511.2741965777068,20.064176800924457,15.050647008284498,-19.51204431366605,-40.066169114458226,15.234261000550552,-19.757475919543666,-0.17134212432807186,0.0010005437377943547,0.9852110816180318,-0.06048746118220263,0.0014102446637922535,0.9981679609413036,51.32752727237612,55.24191183113826,3.4298495616352254,3.7011685032142085
8547.3458875,16710290.0,1257398.5,1712336666624.0,-480.0,0.2942979633808136,192.0,0.11771918833255768,-15664.0,9.603923797607422,2708.0,3943.958984375,2284.0,1673.2601318359375,34696.0,547.9727172851562,1.8249083757400513,0.998933732509613,0.40766682712424085,0.4126486202589502,-72.22966347716309,16.59442802333983,511.035967100967,20.064176800924457,15.050647008284498,-19.51204431366605,-40.066169114458226,15.234261000550552,-19.757475919543666,-0.1713812198220465,0.004014289287170454,0.9851966113288384,-0.06048746118220263,0.0014102446637922535,0.9981679609413036,51.263328515082065,55.24191183113826,3.4262569812238066,3.7011685032142085
8547.4134861,16710546.0,1257406.25,1712336666624.0,-512.0,0.3139178454875946,176.0,0.10790925472974777,-15664.0,9.603923797607422,2725.0,3968.718017578125,2325.0,1703.2967529296875,34696.0,547.9727172851562,1.8249083757400513,0.998933732509613,0.4077725186925451,0.41223762013030896,-71.76058074400817,16.698135682301583,508.34126385194475,20.064176800924457,15.050647008284498,-19.51204431366605,-40.066169114458226,15.234261000550552,-19.757475919543666,-0.1713812198220465,0.004014289287170454,0.9851966113288384,-0.0599108982548202,0.0018276070686081831,0.9982020557596059,51.263328515082065,54.97798246608931,3.4262569812238066,3.6826451169952468
8547.4809285,16710802.0,1257414.0,1712336666624.0,-528.0,0.3237277865409851,160.0,0.09809932857751846,-15568.0,9.545063972473145,2723.0,3965.80517578125,2335.0,1710.6226806640625,34697.0,547.5330810546875,1.82637357711792,1.0,0.40789249111034537,0.412666367928642,-71.836930012322,16.53890561670035,509.60561968578327,20.064176800924457,15.050647008284498,-19.51204431366605,-40.066169114458226,15.234261000550552,-19.757475919543666,-0.17112281769038623,0.00340373031545334,0.9852438256013799,-0.0599108982548202,0.0018276070686081831,0.9982020557596059,51.443662686359076,54.97798246608931,3.4383339808417035,3.6826451169952468
8547.5486504,16711058.0,1257421.875,1712336666624.0,-480.0,0.2942979633808136,144.0,0.08828939497470856,-15648.0,9.594114303588867,2707.0,3942.502685546875,2308.0,1690.842529296875,34697.0,547.5330810546875,1.82637357711792,1.0,0.4080598581094881,0.4133360680203444,-71.08102659799928,16.086618400026424,505.24613832869613,20.064176800924457,15.050647008284498,-19.51204431366605,-40.066169114458226,15.234261000550552,-19.757475919543666,-0.17112281769038623,0.00340373031545334,0.9852438256013799,-0.05897701965791733,0.0001620278176583668,0.9982593274792158,51.443662686359076,55.091447129161544,3.4383339808417035,3.6910301926393463
8547.6164291,16711314.0,1257429.75,1712336666624.0,-496.0,0.3041079044342041,192.0,0.11771918833255768,-15696.0,9.623543739318848,2723.0,3965.80517578125,2331.0,1707.6922607421875,34697.0,547.5330810546875,1.82637357711792,1.0,0.40800069333748795,0.41219399045426053,-71.04114584168568,16.594488799310582,504.59552809405704,20.064176800924457,15.050647008284498,-19.51204431366605,-40.066169114458226,15.234261000550552,-19.757475919543666,-0.1712525557558982,0.0053296658015821435,0.9852127469788017,-0.05897701965791733,0.0001620278176583668,0.9982593274792158,51.321007136386115,55.091447129161544,3.4306491546738602,3.6910301926393463
8547.6837286,16711570.0,1257437.5,1712336666624.0,-496.0,0.3041079044342041,192.0,0.11771918833255768,-15680.0,9.613734245300293,2721.0,3962.892333984375,2331.0,1707.6922607421875,34696.0,547.9727172851562,1.8249083757400513,1.0,0.40794770086815324,0.41129902069573965,-71.28990865105072,17.057270696249216,506.0342888751619,20.064176800924457,15.050647008284498,-19.51204431366605,-40.066169114458226,15.234261000550552,-19.757475919543666,-0.1712525557558982,0.0053296658015821435,0.9852127469788017,-0.05928417907786033,0.0018931088750334122,0.998239351182797,51.321007136386115,55.18873820489232,3.4306491546738602,3.6975917631024338
8547.7516483,16711826.0,1257445.25,1712336666624.0,-496.0,0.3041079044342041,192.0,0.11771918833255768,-15728.0,9.643163681030273,2723.0,3965.80517578125,2345.0,1717.94873046875,34697.0,547.5330810546875,1.82637357711792,0.9824376106262207,0.4080890137973605,0.4097532176195495,-71.37059522637195,17.82304001095015,507.42767357568346,20.064176800924457,15.050647008284498,-19.51204431366605,-40.066169114458226,15.234261000550552,-19.757475919543666,-0.17095330691132773,0.008192498609424198,0.985245070945608,-0.05928417907786033,0.0018931088750334122,0.998239351182797,51.50018375691564,55.18873820489232,3.4428107443785434,3.6975917631024338
8547.8187226,16712082.0,1257453.125,1712336666624.0,-544.0,0.3335376977920532,160.0,0.09809932857751846,-15744.0,9.652973175048828,2709.0,3945.415283203125,2308.0,1690.842529296875,34697.0,547.5330810546875,1.82637357711792,0.9900916218757629,0.4077945395687504,0.4084710995873606,-71.18658482309344,18.309150335514367,504.3505432061513,20.064176800924457,15.050647008284498,-19.51204431366605,-40.066169114458226,15.234261000550552,-19.757475919543666,-0.17158766811975304,0.010091045078790377,0.9851171721975225,-0.05928417907786033,0.0018931088750334122,0.998239351182797,51.654572436347735,55.18873820489232,3.4529254175164485,3.6975917631024338
8547.8865494,16712338.0,1257461.0,1712336666624.0,-496.0,0.3041079044342041,176.0,0.10790925472974777,-15648.0,9.594114303588867,2723.0,3965.80517578125,2336.0,1711.3553466796875,34697.0,547.5330810546875,1.82637357711792,0.9900916218757629,0.4077538593708726,0.40802746227146125,-71.37403242906485,18.554187566381465,505.4303483985724,20.064176800924457,15.050647008284498,-19.51204431366605,-40.066169114458226,15.234261000550552,-19.757475919543666,-0.17158766811975304,0.010091045078790377,0.9851171721975225,-0.05951632997107057,0.002793952966144358,0.9982234220321611,51.654572436347735,55.3159435208013,3.4529254175164485,3.705125566750038
8547.9538967,16712594.0,1257468.75,1712336666624.0,-528.0,0.3237277865409851,192.0,0.11771918833255768,-15632.0,9.584303855895996,2723.0,3965.80517578125,2337.0,1712.087890625,34697.0,547.5330810546875,1.82637357711792,0.9802851676940918,0.4077243065051023,0.4080870924602302,-71.3562164705389,18.515644473554516,505.12993698541345,20.064176800924457,15.050647008284498,-19.51204431366605,-40.066169114458226,15.234261000550552,-19.757475919543666,-0.17165089711921838,0.009952684837601564,0.9851075644733883,-0.05951632997107057,0.002793952966144358,0.9982234220321611,51.641942435323024,55.3159435208013,3.4530675658093886,3.705125566750038
8548.0218621,16712850.0,1257476.5,1712336666624.0,-576.0,0.35315757989883423,160.0,0.09809932857751846,-15648.0,9.594114303588867,2723.0,3965.80517578125,2351.0,1722.3443603515625,34698.0,547.0941772460938,1.8278387784957886,0.9802851676940918,0.40774233120918024,0.4091792041643646,-71.25793319852897,17.989155090570705,504.55755475137596,20.064176800924457,15.050647008284498,-19.51204431366605,-40.066169114458226,15.234261000550552,-19.757475919543666,-0.17165089711921838,0.009952684837601564,0.9851075644733883,-0.05939772471295528,0.000815908755192302,0.9982340630292212,51.641942435323024,55.54414798264431,3.4530675658093886,3.720668513075559
8548.0895598,16713106.0,1257484.375,1712336666624.0,-560.0,0.3433476388454437,176.0,0.10790925472974777,-15616.0,9.574494361877441,2715.0,3954.15380859375,2325.0,1703.2967529296875,34697.0,547.5330810546875,1.82637357711792,1.0,0.40630072134986134,0.40724033689943595,-70.40041481032725,18.35325038706798,490.16150312649785,20.064176800924457,15.050647008284498,-19.51204431366605,-40.066169114458226,15.234261000550552,-19.757475919543666,-0.1747413091763321,0.01166963439742108,0.9845452221713191,-0.05939772471295528,0.000815908755192302,0.9982340630292212,51.48929834365362,55.54414798264431,3.443077851317784,3.720668513075559
8548.156999,16713362.0,1257492.25,1712336666624.0,-528.0,0.3237277865409851,240.0,0.1471489816904068,-15664.0,9.603923797607422,2725.0,3968.718017578125,2348.0,1720.146484375,34697.0,547.5330810546875,1.82637357711792,1.0,0.4058589810431874,0.405368455309183,-72.36120576077431,19.630450713465294,501.22586282114094,20.064176800924457,15.050647008284498,-19.51204431366605,-40.066169114458226,15.234261000550552,-19.757475919543666,-0.1747413091763321,0.01166963439742108,0.9845452221713191,-0.06187668044005895,0.005411247531403617,0.9980691332858025,51.48929834365362,55.21212868000233,3.443077851317784,3.6986197755166508
8548.2246886,16713618.0,1257500.0,1712336666624.0,-496.0,0.3041079044342041,192.0,0.11771918833255768,-15680.0,9.613734245300293,2725.0,3968.718017578125,2343.0,1716.4835205078125,34696.0,547.9727172851562,1.8249083757400513,1.0,0.3997238991755972,0.4020837785483574,-68.93404752306645,18.835086445573253,445.9260161568794,20.064176800924457,15.050647008284498,-19.51204431366605,-40.066169114458226,15.234261000550552,-19.757475919543666,-0.18779766825745378,0.010291987980689397,0.9821538121803878,-0.06187668044005895,0.005411247531403617,0.9980691332858025,51.41911306369852,55.21212868000233,3.4391264715222922,3.6986197755166508
8548.2919459,16713874.0,1257507.75,1712336666624.0,-512.0,0.3139178454875946,208.0,0.12752912938594818,-15648.0,9.594114303588867,2716.0,3955.6103515625,2331.0,1707.6922607421875,34697.0,547.5330810546875,1.82637357711792,1.0,0.39756962495611947,0.4032588655529594,-78.19687550851535,20.357715012083364,494.37811030776777,20.064176800924457,15.050647008284498,-19.51204431366605,-40.066169114458226,15.234261000550552,-19.757475919543666,-0.18779766825745378,0.010291987980689397,0.9821538121803878,-0.07395836803613491,0.009788363296838463,0.997213290997167,51.41911306369852,54.69699551897166,3.4391264715222922,3.663362545160015
8548.359788,16714130.0,1257515.625,1712336666624.0,-464.0,0.2844880521297455,160.0,0.09809932857751846,-15680.0,9.613734245300293,2708.0,3943.958984375,2294.0,1680.5860595703125,34697.0,547.5330810546875,1.82637357711792,0.9826033711433411,0.3915551406522374,0.4001818437894883,-74.27121439353915,19.455731773390077,441.43423384529865,20.064176800924457,15.050647008284498,-19.51204431366605,-40.066169114458226,15.234261000550552,-19.757475919543666,-0.20049333457272708,0.008701719761878038,0.9796564208257373,-0.07395836803613491,0.009788363296838463,0.997213290997167,51.74578148229173,54.69699551897166,3.461531684992167,3.663362545160015
8548.4275397,16714386.0,1257523.5,1712336666624.0,-512.0,0.3139178454875946,176.0,0.10790925472974777,-15632.0,9.584303855895996,2724.0,3967.261474609375,2324.0,1702.5640869140625,34697.0,547.5330810546875,1.82637357711792,0.9826033711433411,0.38920873522974714,0.40515187696199595,-85.12890858168862,19.54144757812123,494.48497810427716,20.064176800924457,15.050647008284498,-19.51204431366605,-40.066169114458226,15.234261000550552,-19.757475919543666,-0.20049333457272708,0.008701719761878038,0.9796564208257373,-0.08729224131406492,0.008201089461966524,0.9961489882231492,51.74578148229173,55.12340772434638,3.461531684992167,3.6918287784675448
8548.494789,16714642.0,1257531.25,1712336666624.0,-544.0,0.3335376977920532,240.0,0.1471489816904068,-15648.0,9.594114303588867,2724.0,3967.261474609375,2330.0,1706.959716796875,34697.0,547.5330810546875,1.82637357711792,0.9996553659439087,0.3876158621838335,0.4057436013277562,-83.80431008661984,18.68960679483934,479.3484909248475,20.064176800924457,15.050647008284498,-19.51204431366605,-40.066169114458226,15.234261000550552,-19.757475919543666,-0.20383856169678,0.005836580922672265,0.9789871169165205,-0.08729224131406492,0.008201089461966524,0.9961489882231492,51.97482698059205,55.12340772434638,3.4768972003431773,3.6918287784675448
8548.5627604,16714898.0,1257539.0,1712336666624.0,-560.0,0.3433476388454437,192.0,0.11771918833255768,-15744.0,9.652973175048828,2724.0,3967.261474609375,2338.0,1712.820556640625,34697.0,547.5330810546875,1.82637357711792,0.9996553659439087,0.38747557888666534,0.4060765914876385,-84.5084091883295,18.67394108759717,482.7298657117366,20.064176800924457,15.050647008284498,-19.51204431366605,-40.066169114458226,15.234261000550552,-19.757475919543666,-0.20383856169678,0.005836580922672265,0.9789871169165205,-0.08809469685962346,0.008044535644258588,0.9960796202269573,51.97482698059205,55.31090575976572,3.4768972003431773,3.704826188828969
8548.6305221,16715154.0,1257546.875,1712336666624.0,-560.0,0.3433476388454437,176.0,0.10790925472974777,-15712.0,9.633354187011719,2711.0,3948.328125,2316.0,1696.7032470703125,34697.0,547.5330810546875,1.82637357711792,0.9774319529533386,0.38911465136436274,0.40690860074059987,-85.91231878302848,18.8976275449363,498.60656613159676,20.064176800924457,15.050647008284498,-19.51204431366605,-40.066169114458226,15.234261000550552,-19.757475919543666,-0.20038973547048566,0.006269074914813733,0.9796962042479194,-0.08809469685962346,0.008044535644258588,0.9960796202269573,51.93224075954504,55.31090575976572,3.472761271914917,3.704826188828969
8548.6980701,16715410.0,1257554.75,1712336666624.0,-576.0,0.35315757989883423,224.0,0.1373390555381775,-15664.0,9.603923797607422,2723.0,3965.80517578125,2333.0,1709.157470703125,34697.0,547.5330810546875,1.82637357711792,0.9774319529533386,0.38977321347094546,0.40502942012629206,-82.56406442475543,19.10916020793952,482.23916879015155,20.064176800924457,15.050647008284498,-19.51204431366605,-40.066169114458226,15.234261000550552,-19.757475919543666,-0.20038973547048566,0.006269074914813733,0.9796962042479194,-0.08434826512286961,0.009346513731721393,0.9963924993956071,51.93224075954504,55.20704137928166,3.472761271914917,3.698145607665366
8548.765789,16715666.0,1257562.5,1712336666624.0,-544.0,0.3335376977920532,192.0,0.11771918833255768,-15600.0,9.56468391418457,2725.0,3968.718017578125,2346.0,1718.6812744140625,34697.0,547.5330810546875,1.82637357711792,0.9635642468929291,0.3899050290269863,0.404507560958116,-82.66589907117094,19.38897769984301,483.450191968151,20.064176800924457,15.050647008284498,-19.51204431366605,-40.066169114458226,15.234261000550552,-19.757475919543666,-0.2001146327171936,0.007331012495981741,0.9797450637937639,-0.08434826512286961,0.009346513731721393,0.9963924993956071,51.838086266626924,55.20704137928166,3.4666404158417805,3.698145607665366
8548.8335878,16715922.0,1257570.25,1712336666624.0,-528.0,0.3237277865409851,192.0,0.11771918833255768,-15616.0,9.574494361877441,2713.0,3951.240966796875,2319.0,1698.901123046875,34697.0,547.5330810546875,1.82637357711792,0.9635642468929291,0.38977870029920536,0.4037019155803293,-83.31607932988982,19.878666249220622,486.6358055618531,20.064176800924457,15.050647008284498,-19.51204431366605,-40.066169114458226,15.234261000550552,-19.757475919543666,-0.2001146327171936,0.007331012495981741,0.9797450637937639,-0.08508799015046356,0.011152231414121694,0.9963110265708398,51.838086266626924,55.288216387197366,3.4666404158417805,3.70266837484217
8548.9004593,16716178.0,1257578.125,1712336666624.0,-560.0,0.3433476388454437,192.0,0.11771918833255768,-15568.0,9.545063972473145,2713.0,3951.240966796875,2315.0,1695.970703125,34697.0,547.5330810546875,1.82637357711792,0.9854386746883392,0.3890636263335878,0.40310553529617854,-82.7405937530605,19.87090588042102,479.89928157777007,20.064176800924457,15.050647008284498,-19.51204431366605,-40.066169114458226,15.234261000550552,-19.757475919543666,-0.20162082305134926,0.007546576232872649,0.9794345781619404,-0.08508799015046356,0.011152231414121694,0.9963110265708398,51.83309827136966,55.288216387197366,3.466071952182925,3.70266837484217
