timestamp,Timestamp RAW (no units)_002,Timestamp CAL (mSecs)_002,System Timestamp CAL (mSecs)_002,Wide Range Accelerometer X RAW (no units)_002,Wide Range Accelerometer X CAL (m/(sec ^2))_002,Wide Range Accelerometer Y RAW (no units)_002,Wide Range Accelerometer Y CAL (m/(sec ^2))_002,Wide Range Accelerometer Z RAW (no units)_002,Wide Range Accelerometer Z CAL (m/(sec ^2))_002,VSenseBatt RAW (no units)_002,VSenseBatt CAL (m Volts)_002,Internal ADC A13 RAW (no units)_002,Internal ADC A13 CAL (m Volts)_002,GSR RAW (no units)_002,GSR CAL (kOhms)_002,GSR Conductance CAL (u Siemens)_002,confidence_002,norm_pos_x_002,norm_pos_y_002,gaze_point_3d_x_002,gaze_point_3d_y_002,gaze_point_3d_z_002,eye_center0_3d_x_002,eye_center0_3d_y_002,eye_center0_3d_z_002,eye_center1_3d_x_002,eye_center1_3d_y_002,eye_center1_3d_z_002,gaze_normal0_x_002,gaze_normal0_y_002,gaze_normal0_z_002,gaze_normal1_x_002,gaze_normal1_y_002,gaze_normal1_z_002,diameter0_2d_002,diameter1_2d_002,diameter0_3d_002,diameter1_3d_002
327740.1042389,1731598.0,1190179.75,1711217704960.0,-512.0,0.3139178454875946,272.0,0.1667688488960266,-15744.0,9.652973175048828,2660.0,3874.05126953125,2541.0,1861.5384521484375,18038.0,201.623779296875,4.959732532501221,0.9998903274536133,0.43873482641779143,0.3157380089247276,-26.576045988742212,35.49067596342036,292.4599880166337,20.119680322133977,14.065736035557187,-21.8174007310805,-40.78363448460042,12.941884879869491,-21.920733057924267,-0.14651178977522414,0.060737319741174245,0.9873425309625424,0.044909910249474626,0.0780068368772749,0.9959407780394305,54.07800588608685,49.04126601747206,3.553507088297878,3.5394290348712474
327740.2045101,1731854.0,1190187.5,1711217704960.0,-544.0,0.3335376977920532,304.0,0.18638871610164642,-15680.0,9.613734245300293,2669.0,3887.158935546875,2559.0,1874.7252197265625,18038.0,201.623779296875,4.959732532501221,0.9860318899154663,0.438543491766899,0.31528328965551844,-26.60781605818014,35.53333686402193,291.7878619423277,20.119680322133977,14.065736035557187,-21.8174007310805,-40.78363448460042,12.941884879869491,-21.920733057924267,-0.14691986847373084,0.061297789390938544,0.9872472503195164,0.044909910249474626,0.0780068368772749,0.9959407780394305,54.21379729626783,49.04126601747206,3.562402194090943,3.5394290348712474
327740.3055855,1732110.0,1190195.25,1711217704960.0,-560.0,0.3433476388454437,320.0,0.19619865715503693,-15680.0,9.613734245300293,2670.0,3888.615478515625,2565.0,1879.120849609375,18037.0,201.83152770996094,4.95462703704834,0.9860318899154663,0.43851940619543034,0.3145555121595155,-26.633085224809093,35.74659105066871,291.9165443444559,20.119680322133977,14.065736035557187,-21.8174007310805,-40.78363448460042,12.941884879869491,-21.920733057924267,-0.14691986847373084,0.061297789390938544,0.9872472503195164,0.04479741784855364,0.07929069573293498,0.9958444541816203,54.21379729626783,49.01447484988854,3.562402194090943,3.537992308422935
327740.4063493,1732366.0,1190203.125,1711217704960.0,-592.0,0.36296749114990234,272.0,0.1667688488960266,-15696.0,9.623543739318848,2662.0,3876.964111328125,2557.0,1873.2601318359375,18038.0,201.623779296875,4.959732532501221,0.9815093278884888,0.4381463931510526,0.31477426910665884,-26.6904662051233,35.52835743665805,290.6021065211976,20.119680322133977,14.065736035557187,-21.8174007310805,-40.78363448460042,12.941884879869491,-21.920733057924267,-0.14769882206778262,0.060499657580586806,0.9871802517232714,0.04479741784855364,0.07929069573293498,0.9958444541816203,54.03930407929654,49.01447484988854,3.551250810795772,3.537992308422935
327740.5067996,1732622.0,1190211.0,1711217704960.0,-544.0,0.3335376977920532,272.0,0.1667688488960266,-15648.0,9.594114303588867,2659.0,3872.594970703125,2545.0,1864.4688720703125,18038.0,201.623779296875,4.959732532501221,0.9815093278884888,0.4385210136371783,0.3140256455792714,-26.237159406949743,35.355917181419706,287.5694687247289,20.119680322133977,14.065736035557187,-21.8174007310805,-40.78363448460042,12.941884879869491,-21.920733057924267,-0.14769882206778262,0.060499657580586806,0.9871802517232714,0.04669033758213073,0.07954787135640569,0.9957369876323422,54.03930407929654,48.96154031993061,3.551250810795772,3.5343153338089603
327740.6082659,1732878.0,1190218.75,1711217704960.0,-512.0,0.3139178454875946,256.0,0.1569589227437973,-15696.0,9.623543739318848,2668.0,3885.70263671875,2558.0,1873.99267578125,18037.0,201.83152770996094,4.95462703704834,1.0,0.43786635806666957,0.3128102086161847,-26.344694602739317,35.40883593791851,285.3507516953576,20.119680322133977,14.065736035557187,-21.8174007310805,-40.78363448460042,12.941884879869491,-21.920733057924267,-0.14908739241489438,0.061832217133415704,0.9868889128707917,0.04669033758213073,0.07954787135640569,0.9957369876323422,53.71259918576538,48.96154031993061,3.5296168967999026,3.5343153338089603
327740.7086282,1733134.0,1190226.5,1711217704960.0,-480.0,0.2942979633808136,272.0,0.1667688488960266,-15680.0,9.613734245300293,2670.0,3888.615478515625,2562.0,1876.923095703125,18037.0,201.83152770996094,4.95462703704834,1.0,0.43807286289455866,0.31345513925818336,-26.1052140725106,35.04741247111161,283.81813759986534,20.119680322133977,14.065736035557187,-21.8174007310805,-40.78363448460042,12.941884879869491,-21.920733057924267,-0.14908739241489438,0.061832217133415704,0.9868889128707917,0.047721087532190315,0.07791813215225393,0.9958169824253092,53.71259918576538,48.97970394666971,3.5296168967999026,3.536150326892042
327740.8095716,1733390.0,1190234.375,1711217704960.0,-480.0,0.2942979633808136,256.0,0.1569589227437973,-15744.0,9.652973175048828,2660.0,3874.05126953125,2550.0,1868.1318359375,18037.0,201.83152770996094,4.95462703704834,0.9609457850456238,0.4382619309923439,0.31378261937640595,-26.07408315749278,35.037800086669364,284.44915384853994,20.119680322133977,14.065736035557187,-21.8174007310805,-40.78363448460042,12.941884879869491,-21.920733057924267,-0.14868704230126423,0.06148776645789425,0.9869708293702107,0.047721087532190315,0.07791813215225393,0.9958169824253092,53.49435656875082,48.97970394666971,3.5153589531953395,3.536150326892042
327740.9105559,1733646.0,1190242.25,1711217704960.0,-544.0,0.3335376977920532,224.0,0.1373390555381775,-15728.0,9.643163681030273,2668.0,3885.70263671875,2553.0,1870.3297119140625,18037.0,201.83152770996094,4.95462703704834,0.9575316607952118,0.4381577882757125,0.3136874758202497,-26.195851831894444,35.16129687959287,285.24278842286856,20.119680322133977,14.065736035557187,-21.8174007310805,-40.78363448460042,12.941884879869491,-21.920733057924267,-0.14868704230126423,0.06148776645789425,0.9869708293702107,0.04719887974760014,0.07835459274458481,0.9958076237639485,53.49435656875082,48.72933588395357,3.5153589531953395,3.51790497092499
327741.0115999,1733902.0,1190250.0,1711217704960.0,-544.0,0.3335376977920532,240.0,0.1471489816904068,-15712.0,9.633354187011719,2662.0,3876.964111328125,2551.0,1868.864501953125,18037.0,201.83152770996094,4.95462703704834,0.9697841107845306,0.43884839522402147,0.31566714076852587,-26.07877116556103,34.91630113093106,287.57525839000397,20.119680322133977,14.065736035557187,-21.8174007310805,-40.78363448460042,12.941884879869491,-21.920733057924267,-0.14721164426669706,0.058889757213715754,0.9873503574150388,0.04719887974760014,0.07835459274458481,0.9958076237639485,53.45758109688491,48.72933588395357,3.513410084169397,3.51790497092499
327741.112427,1734158.0,1190257.75,1711217704960.0,-608.0,0.37277743220329285,288.0,0.17657878994941711,-15712.0,9.633354187011719,2669.0,3887.158935546875,2560.0,1875.4578857421875,18036.0,202.0397186279297,4.949522018432617,0.9731982350349426,0.4387962177561954,0.3148777039532684,-26.136310237211667,35.16897680489498,287.9145789292571,20.119680322133977,14.065736035557187,-21.8174007310805,-40.78363448460042,12.941884879869491,-21.920733057924267,-0.14721164426669706,0.058889757213715754,0.9873503574150388,0.04694645507610931,0.07981457312482128,0.995703602621126,53.45758109688491,48.57389361650764,3.513410084169397,3.50657945133886
327741.2134759,1734414.0,1190265.625,1711217704960.0,-576.0,0.35315757989883423,256.0,0.1569589227437973,-15728.0,9.643163681030273,2664.0,3879.876953125,2555.0,1871.794921875,18037.0,201.83152770996094,4.95462703704834,0.9722023010253906,0.439738721235571,0.31547659018332186,-25.98156659299661,35.40218075061676,291.1873637585969,20.119680322133977,14.065736035557187,-21.8174007310805,-40.78363448460042,12.941884879869491,-21.920733057924267,-0.1452257210388336,0.05893679064400191,0.9876416073947756,0.04694645507610931,0.07981457312482128,0.995703602621126,53.15378795536294,48.57389361650764,3.4931386124273938,3.50657945133886
327741.3142761,1734670.0,1190273.5,1711217704960.0,-480.0,0.2942979633808136,320.0,0.19619865715503693,-15760.0,9.6627836227417,2660.0,3874.05126953125,2542.0,1862.2711181640625,18037.0,201.83152770996094,4.95462703704834,0.9722023010253906,0.43973201262135025,0.31571840240926496,-25.990875044036386,35.34596797557322,291.2629879266622,20.119680322133977,14.065736035557187,-21.8174007310805,-40.78363448460042,12.941884879869491,-21.920733057924267,-0.1452257210388336,0.05893679064400191,0.9876416073947756,0.04690981992951689,0.07942730259926856,0.9957362966147134,53.15378795536294,48.69601498931793,3.4931386124273938,3.5158049791126325
327741.4145636,1734926.0,1190281.25,1711217704960.0,-544.0,0.3335376977920532,304.0,0.18638871610164642,-15776.0,9.672593116760254,2668.0,3885.70263671875,2552.0,1869.5970458984375,18036.0,202.0397186279297,4.949522018432617,0.9526559710502625,0.43986101257919064,0.31641859177144394,-25.967184067843007,35.20985036079742,291.7099133418949,20.119680322133977,14.065736035557187,-21.8174007310805,-40.78363448460042,12.941884879869491,-21.920733057924267,-0.14494452301241562,0.05788574498429486,0.9877450712488098,0.04690981992951689,0.07942730259926856,0.9957362966147134,53.32933288744631,48.69601498931793,3.5048248667570614,3.5158049791126325
327741.5166921,1735182.0,1190289.0,1711217704960.0,-464.0,0.2844880521297455,224.0,0.1373390555381775,-15744.0,9.652973175048828,2670.0,3888.615478515625,2564.0,1878.3883056640625,18036.0,202.0397186279297,4.949522018432617,0.9526559710502625,0.4394907131665642,0.31668246800320976,-26.4150452895668,35.504898456930334,294.7382791917292,20.119680322133977,14.065736035557187,-21.8174007310805,-40.78363448460042,12.941884879869491,-21.920733057924267,-0.14494452301241562,0.05788574498429486,0.9877450712488098,0.04504831013785202,0.0799654525993939,0.9957791804131566,53.32933288744631,48.375357579465756,3.5048248667570614,3.4925426689861276
327741.61951,1735438.0,1190296.875,1711217704960.0,-496.0,0.3041079044342041,240.0,0.1471489816904068,-15712.0,9.633354187011719,2662.0,3876.964111328125,2553.0,1870.3297119140625,18037.0,201.83152770996094,4.95462703704834,0.9546152353286743,0.4398820666768331,0.31669629349720474,-26.351803023056384,35.669753443878086,296.15386924540906,20.119680322133977,14.065736035557187,-21.8174007310805,-40.78363448460042,12.941884879869491,-21.920733057924267,-0.14412161265261467,0.05830680480116379,0.9878407145285563,0.04504831013785202,0.0799654525993939,0.9957791804131566,53.17507755456792,48.375357579465756,3.494363552078842,3.4925426689861276
327741.7205617,1735694.0,1190304.75,1711217704960.0,-544.0,0.3335376977920532,208.0,0.12752912938594818,-15696.0,9.623543739318848,2659.0,3872.594970703125,2548.0,1866.6666259765625,18037.0,201.83152770996094,4.95462703704834,0.9546152353286743,0.4399556814984207,0.31715535905758874,-26.2646746459204,35.47539945871205,295.5894295926726,20.119680322133977,14.065736035557187,-21.8174007310805,-40.78363448460042,12.941884879869491,-21.920733057924267,-0.14412161265261467,0.05830680480116379,0.9878407145285563,0.04541196272998624,0.07900104730454302,0.9958396397843357,53.17507755456792,48.76711293494655,3.494363552078842,3.5211793175501076
327741.8216304,1735950.0,1190312.5,1711217704960.0,-560.0,0.3433476388454437,256.0,0.1569589227437973,-15728.0,9.643163681030273,2671.0,3890.07177734375,2566.0,1879.853515625,18036.0,202.0397186279297,4.949522018432617,0.9604667723178864,0.4396823683882757,0.3158595592447203,-26.313853109124267,35.71469180717247,294.61783080372555,20.119680322133977,14.065736035557187,-21.8174007310805,-40.78363448460042,12.941884879869491,-21.920733057924267,-0.1447151217893194,0.060214189398868544,0.9876395014986691,0.04541196272998624,0.07900104730454302,0.9958396397843357,52.91996155872204,48.76711293494655,3.4771898402376724,3.5211793175501076
327741.9226014,1736206.0,1190320.25,1711217704960.0,-608.0,0.37277743220329285,272.0,0.1667688488960266,-15696.0,9.623543739318848,2671.0,3890.07177734375,2578.0,1888.6446533203125,18036.0,202.0397186279297,4.949522018432617,0.957930713891983,0.43969442227829203,0.3153549853743839,-26.29642082719105,35.835082411145684,294.47261362619514,20.119680322133977,14.065736035557187,-21.8174007310805,-40.78363448460042,12.941884879869491,-21.920733057924267,-0.1447151217893194,0.060214189398868544,0.9876395014986691,0.045478704323714286,0.07981500482582797,0.995771686913064,52.91996155872204,48.30063080055702,3.4771898402376724,3.4869886570141304
327742.0235767,1736462.0,1190328.125,1711217704960.0,-512.0,0.3139178454875946,272.0,0.1667688488960266,-15712.0,9.633354187011719,2663.0,3878.42041015625,2563.0,1877.6556396484375,18036.0,202.0397186279297,4.949522018432617,0.9485762417316437,0.44087672405755135,0.3170011366297758,-26.096054594631106,35.89484962104273,298.76420564237543,20.119680322133977,14.065736035557187,-21.8174007310805,-40.78363448460042,12.941884879869491,-21.920733057924267,-0.14220311491634266,0.05874070982282344,0.9880930133937798,0.045478704323714286,0.07981500482582797,0.995771686913064,52.730969986828775,48.30063080055702,3.4650316543456974,3.4869886570141304
327742.1262491,1736718.0,1190336.0,1711217704960.0,-512.0,0.3139178454875946,272.0,0.1667688488960266,-15744.0,9.652973175048828,2668.0,3885.70263671875,2566.0,1879.853515625,18036.0,202.0397186279297,4.949522018432617,0.951112300157547,0.44102011819339515,0.31781248370630366,-25.925996245950444,35.53520131543014,297.6424984579917,20.119680322133977,14.065736035557187,-21.8174007310805,-40.78363448460042,12.941884879869491,-21.920733057924267,-0.14220311491634266,0.05874070982282344,0.9880930133937798,0.046186789756146145,0.07807556111525178,0.9958769940151041,52.730969986828775,48.63391138450953,3.4650316543456974,3.5111454790278596
327742.2265267,1736974.0,1190343.75,1711217704960.0,-528.0,0.3237277865409851,192.0,0.11771918833255768,-15648.0,9.594114303588867,2669.0,3887.158935546875,2566.0,1879.853515625,18036.0,202.0397186279297,4.949522018432617,0.9583360254764557,0.44154066084337157,0.31796716636460065,-25.83740892297682,35.71915280896674,299.5637846634903,20.119680322133977,14.065736035557187,-21.8174007310805,-40.78363448460042,12.941884879869491,-21.920733057924267,-0.14110373765611553,0.0590675984531692,0.9882311237926324,0.046186789756146145,0.07807556111525178,0.9958769940151041,52.66255434050451,48.63391138450953,3.460316207693877,3.5111454790278596
327742.3271212,1737230.0,1190351.5,1711217704960.0,-560.0,0.3433476388454437,208.0,0.12752912938594818,-15680.0,9.613734245300293,2649.0,3858.03076171875,2534.0,1856.4102783203125,18036.0,202.0397186279297,4.949522018432617,0.9583360254764557,0.44160847997544544,0.3181004063964781,-25.755755502925723,35.61539031774638,299.0063125415468,20.119680322133977,14.065736035557187,-21.8174007310805,-40.78363448460042,12.941884879869491,-21.920733057924267,-0.14110373765611553,0.0590675984531692,0.9882311237926324,0.04652448857585634,0.07767327572481263,0.9958927322763894,52.66255434050451,48.32687496898806,3.460316207693877,3.488732358149586
327742.4274248,1737486.0,1190359.375,1711217704960.0,-544.0,0.3335376977920532,272.0,0.1667688488960266,-15744.0,9.652973175048828,2663.0,3878.42041015625,2542.0,1862.2711181640625,18036.0,202.0397186279297,4.949522018432617,0.9768030643463135,0.4414904326062389,0.31827067832150324,-25.775262306744043,35.51647264484622,298.5674517952373,20.119680322133977,14.065736035557187,-21.8174007310805,-40.78363448460042,12.941884879869491,-21.920733057924267,-0.14135019751733197,0.058641767442935866,0.9882212630645931,0.04652448857585634,0.07767327572481263,0.9958927322763894,52.96733653491177,48.32687496898806,3.4804327149097523,3.488732358149586
327742.5291356,1737742.0,1190367.25,1711217704960.0,-496.0,0.3041079044342041,256.0,0.1569589227437973,-15760.0,9.6627836227417,2658.0,3871.138427734375,2539.0,1860.0732421875,18036.0,202.0397186279297,4.949522018432617,0.9768030643463135,0.4408114163874958,0.3190564331657926,-26.61871310207676,35.99596489445018,304.43777584151746,20.119680322133977,14.065736035557187,-21.8174007310805,-40.78363448460042,12.941884879869491,-21.920733057924267,-0.14135019751733197,0.058641767442935866,0.9882212630645931,0.04311117574316576,0.07814482484449682,0.9960094441701166,52.96733653491177,48.05908537817895,3.4804327149097523,3.469337304601388
327742.6298237,1737998.0,1190375.0,1711217704960.0,-528.0,0.3237277865409851,256.0,0.1569589227437973,-15808.0,9.69221305847168,2670.0,3888.615478515625,2555.0,1871.794921875,18036.0,202.0397186279297,4.949522018432617,1.0,0.4411523275354998,0.3191008885974994,-26.562513643903053,36.136888340089826,305.7499204666261,20.119680322133977,14.065736035557187,-21.8174007310805,-40.78363448460042,12.941884879869491,-21.920733057924267,-0.14062994402709153,0.05895307645397819,0.9883054960990294,0.04311117574316576,0.07814482484449682,0.9960094441701166,52.81403634637473,48.05908537817895,3.47003639544626,3.469337304601388
327742.7305566,1738254.0,1190382.75,1711217704960.0,-528.0,0.3237277865409851,208.0,0.12752912938594818,-15696.0,9.623543739318848,2671.0,3890.07177734375,2573.0,1884.981689453125,18035.0,202.24832153320312,4.9444169998168945,1.0,0.4410378911647671,0.3193478733473667,-26.708984171010922,36.18901382711785,306.7812617403898,20.119680322133977,14.065736035557187,-21.8174007310805,-40.78363448460042,12.941884879869491,-21.920733057924267,-0.14062994402709153,0.05895307645397819,0.9883054960990294,0.042533632024946505,0.07803168952183623,0.9960431444355882,52.81403634637473,48.36991209892905,3.47003639544626,3.4921610739384965
327742.8312837,1738510.0,1190390.625,1711217704960.0,-496.0,0.3041079044342041,240.0,0.1471489816904068,-15696.0,9.623543739318848,2656.0,3868.2255859375,2542.0,1862.2711181640625,18036.0,202.0397186279297,4.949522018432617,0.9471981823444366,0.4418553476687749,0.3205297689231803,-26.569072620467203,36.22244440268831,309.9784195797828,20.119680322133977,14.065736035557187,-21.8174007310805,-40.78363448460042,12.941884879869491,-21.920733057924267,-0.13888525883470565,0.057854146859805014,0.9886171061485538,0.042533632024946505,0.07803168952183623,0.9960431444355882,52.627910770612786,48.36991209892905,3.4579025012286553,3.4921610739384965
327742.9320311,1738766.0,1190398.5,1711217704960.0,-560.0,0.3433476388454437,240.0,0.1471489816904068,-15728.0,9.643163681030273,2657.0,3869.68212890625,2535.0,1857.142822265625,18035.0,202.24832153320312,4.9444169998168945,0.9471981823444366,0.44150823558935837,0.32059837756338494,-27.017746814644582,36.57335952665139,313.1379561602797,20.119680322133977,14.065736035557187,-21.8174007310805,-40.78363448460042,12.941884879869491,-21.920733057924267,-0.13888525883470565,0.057854146859805014,0.9886171061485538,0.04079080284580369,0.07882983917208723,0.9960531947939815,52.627910770612786,47.96403343086469,3.4579025012286553,3.462644342770612
327743.0327499,1739022.0,1190406.25,1711217704960.0,-512.0,0.3139178454875946,208.0,0.12752912938594818,-15664.0,9.603923797607422,2660.0,3874.05126953125,2533.0,1855.6776123046875,18035.0,202.24832153320312,4.9444169998168945,0.9692382216453552,0.44040593080887547,0.3191002423451329,-27.20140223887006,36.49599909280303,308.75655853256126,20.119680322133977,14.065736035557187,-21.8174007310805,-40.78363448460042,12.941884879869491,-21.920733057924267,-0.14123704608948645,0.05917302106181519,0.9882057733034827,0.04079080284580369,0.07882983917208723,0.9960531947939815,52.73926073598644,47.96403343086469,3.4651963213359505,3.462644342770612
327743.1335314,1739278.0,1190414.0,1711217704960.0,-496.0,0.3041079044342041,272.0,0.1667688488960266,-15712.0,9.633354187011719,2670.0,3888.615478515625,2554.0,1871.062255859375,18035.0,202.24832153320312,4.9444169998168945,0.9692382216453552,0.4402627819256607,0.3198667621780946,-27.392298386413692,36.43739489140984,310.1210939403161,20.119680322133977,14.065736035557187,-21.8174007310805,-40.78363448460042,12.941884879869491,-21.920733057924267,-0.14123704608948645,0.05917302106181519,0.9882057733034827,0.040060491544600355,0.07791940652313384,0.9961544674920086,52.73926073598644,48.254357876937135,3.4651963213359505,3.4839227134022153
327743.2341139,1739534.0,1190421.875,1711217704960.0,-528.0,0.3237277865409851,240.0,0.1471489816904068,-15664.0,9.603923797607422,2662.0,3876.964111328125,2550.0,1868.1318359375,18036.0,202.0397186279297,4.949522018432617,0.9729463458061218,0.44045446525746873,0.3206982012311034,-27.358751827576114,36.28496095192098,310.8724434202652,20.119680322133977,14.065736035557187,-21.8174007310805,-40.78363448460042,12.941884879869491,-21.920733057924267,-0.14082022717188622,0.05796328304266777,0.9883369473201808,0.040060491544600355,0.07791940652313384,0.9961544674920086,52.37938828172935,48.254357876937135,3.441805322137606,3.4839227134022153
327743.3347451,1739790.0,1190429.75,1711217704960.0,-512.0,0.3139178454875946,272.0,0.1667688488960266,-15664.0,9.603923797607422,2656.0,3868.2255859375,2531.0,1854.21240234375,18035.0,202.24832153320312,4.9444169998168945,0.9487001895904541,0.44093899904792877,0.3216851140866267,-27.27770545471614,36.22173882301271,312.80355010164874,20.119680322133977,14.065736035557187,-21.8174007310805,-40.78363448460042,12.941884879869491,-21.920733057924267,-0.13978187034573547,0.05681861874447819,0.9885507944899026,0.040060491544600355,0.07791940652313384,0.9961544674920086,52.515844292654556,48.254357876937135,3.450961496769912,3.4839227134022153
327743.4357773,1740046.0,1190437.5,1711217704960.0,-480.0,0.2942979633808136,224.0,0.1373390555381775,-15648.0,9.594114303588867,2670.0,3888.615478515625,2556.0,1872.5274658203125,18035.0,202.24832153320312,4.9444169998168945,0.9487001895904541,0.44100969402773477,0.3217613446170897,-27.18563560148499,36.125359527730524,312.16466913834444,20.119680322133977,14.065736035557187,-21.8174007310805,-40.78363448460042,12.941884879869491,-21.920733057924267,-0.13978187034573547,0.05681861874447819,0.9885507944899026,0.040414923261862135,0.07760512651646129,0.9961646843349253,52.515844292654556,48.05353345082606,3.450961496769912,3.4691237014202776
327743.536274,1740302.0,1190445.25,1711217704960.0,-576.0,0.35315757989883423,256.0,0.1569589227437973,-15632.0,9.584303855895996,2642.0,3847.8359375,2509.0,1838.09521484375,18035.0,202.24832153320312,4.9444169998168945,0.9571432769298553,0.4411173273750335,0.32200622345147023,-27.167316503001807,36.10364013231003,312.59467616162146,20.119680322133977,14.065736035557187,-21.8174007310805,-40.78363448460042,12.941884879869491,-21.920733057924267,-0.13955074112732002,0.056520222647147865,0.9886005538551618,0.040414923261862135,0.07760512651646129,0.9961646843349253,52.28600129013719,48.05353345082606,3.435807652830864,3.4691237014202776
327743.636919,1740558.0,1190453.125,1711217704960.0,-544.0,0.3335376977920532,224.0,0.1373390555381775,-15664.0,9.603923797607422,2663.0,3878.42041015625,2536.0,1857.87548828125,18035.0,202.24832153320312,4.9444169998168945,0.9571432769298553,0.4409027232507414,0.3230885747388228,-27.456684974795056,36.030259589142936,314.68438637582574,20.119680322133977,14.065736035557187,-21.8174007310805,-40.78363448460042,12.941884879869491,-21.920733057924267,-0.13955074112732002,0.056520222647147865,0.9886005538551618,0.03932117052506727,0.07634907991702843,0.99630550713341,52.28600129013719,48.06271414330619,3.435807652830864,3.4700311482452797
327743.7381443,1740814.0,1190461.0,1711217704960.0,-544.0,0.3335376977920532,272.0,0.1667688488960266,-15648.0,9.594114303588867,2667.0,3884.24609375,2551.0,1868.864501953125,18035.0,202.24832153320312,4.9444169998168945,0.9571432769298553,0.44058025438624104,0.32267175833082073,-27.885237498995522,36.49522048144611,317.65989124703515,20.119680322133977,14.065736035557187,-21.8174007310805,-40.78363448460042,12.941884879869491,-21.920733057924267,-0.13955074112732002,0.056520222647147865,0.9886005538551618,0.03770305928986795,0.07789906892209171,0.9962480686963742,52.28600129013719,47.76193699430184,3.435807652830864,3.4483993884000608
327743.83888,1741070.0,1190468.75,1711217704960.0,-576.0,0.35315757989883423,288.0,0.17657878994941711,-15696.0,9.623543739318848,2670.0,3888.615478515625,2567.0,1880.5860595703125,18034.0,202.45736694335938,4.939311504364014,0.9883306324481964,0.44077986058758956,0.323342535349985,-27.85143014868735,36.39066303443634,318.4817593611705,20.119680322133977,14.065736035557187,-21.8174007310805,-40.78363448460042,12.941884879869491,-21.920733057924267,-0.13911856880936393,0.05559341290484713,0.9887140113571898,0.03770305928986795,0.07789906892209171,0.9962480686963742,52.56747038305494,47.76193699430184,3.4541882020551413,3.4483993884000608
327743.9395471,1741326.0,1190476.5,1711217704960.0,-560.0,0.3433476388454437,272.0,0.1667688488960266,-15696.0,9.623543739318848,2668.0,3885.70263671875,2560.0,1875.4578857421875,18034.0,202.45736694335938,4.939311504364014,0.9827117919921875,0.4402956385865534,0.3231365873549237,-27.927314761019254,36.2237716686464,316.4722886859163,20.119680322133977,14.065736035557187,-21.8174007310805,-40.78363448460042,12.941884879869491,-21.920733057924267,-0.1401463047103969,0.05539836303330083,0.9885798069196291,0.03770305928986795,0.07789906892209171,0.9962480686963742,52.45087390599997,47.76193699430184,3.446448315545846,3.4483993884000608
327744.040242,1741582.0,1190484.375,1711217704960.0,-560.0,0.3433476388454437,256.0,0.1569589227437973,-15664.0,9.603923797607422,2660.0,3874.05126953125,2549.0,1867.3992919921875,18035.0,202.24832153320312,4.9444169998168945,0.9827117919921875,0.440183949128836,0.3241870685881548,-28.085354059907026,36.0483134491336,317.63656864967845,20.119680322133977,14.065736035557187,-21.8174007310805,-40.78363448460042,12.941884879869491,-21.920733057924267,-0.1401463047103969,0.05539836303330083,0.9885798069196291,0.03712556212460343,0.07642523931725534,0.9963838996251557,52.45087390599997,47.98431402202163,3.446448315545846,3.4648101402042952
327744.1409816,1741838.0,1190492.25,1711217704960.0,-528.0,0.3237277865409851,224.0,0.1373390555381775,-15712.0,9.633354187011719,2669.0,3887.158935546875,2558.0,1873.99267578125,18034.0,202.45736694335938,4.939311504364014,0.9839231073856354,0.4401335616624749,0.3240716110677886,-28.09351555626526,36.0589591725956,317.42898514253267,20.119680322133977,14.065736035557187,-21.8174007310805,-40.78363448460042,12.941884879869491,-21.920733057924267,-0.14025455162302145,0.05553976870991766,0.9885565208123783,0.03712556212460343,0.07642523931725534,0.9963838996251557,52.3311491723565,47.98431402202163,3.4384867718057253,3.4648101402042952
327744.2419118,1742094.0,1190500.0,1711217704960.0,-576.0,0.35315757989883423,288.0,0.17657878994941711,-15680.0,9.613734245300293,2654.0,3865.312744140625,2538.0,1859.3406982421875,18034.0,202.45736694335938,4.939311504364014,0.9839231073856354,0.4400166640650312,0.3229898955034106,-28.245251878808865,36.49148765329701,318.42114990988296,20.119680322133977,14.065736035557187,-21.8174007310805,-40.78363448460042,12.941884879869491,-21.920733057924267,-0.14025455162302145,0.05553976870991766,0.9885565208123783,0.036550618237080904,0.07855373577196603,0.996239611189374,52.3311491723565,47.74510225705542,3.4384867718057253,3.447830414428304
327744.342427,1742350.0,1190507.75,1711217704960.0,-576.0,0.35315757989883423,288.0,0.17657878994941711,-15680.0,9.613734245300293,2643.0,3849.292236328125,2507.0,1836.6300048828125,18035.0,202.24832153320312,4.9444169998168945,1.0,0.4586071556958949,0.32780763097586896,-27.448132860179953,51.736644775917796,470.7030353373814,nan,nan,nan,-91.29294879655745,50.15593727974024,-25.201532943514362,nan,nan,nan,0.127689631872755,0.0031614149923551394,0.9918091365617915,nan,47.74510225705542,nan,3.447830414428304
327744.4432125,1742606.0,1190515.625,1711217704960.0,-576.0,0.35315757989883423,272.0,0.1667688488960266,-15696.0,9.623543739318848,2662.0,3876.964111328125,2528.0,1852.0146484375,18034.0,202.45736694335938,4.939311504364014,0.951400876045227,0.4407066264218035,0.32352817466427464,-28.188547394422393,36.726306254648634,321.90085358321005,20.119680322133977,14.065736035557187,-21.8174007310805,-40.78363448460042,12.941884879869491,-21.920733057924267,-0.1386918262838255,0.055129631696102896,0.9887999297285114,0.03633543270300143,0.07897668713213149,0.9962140428742806,52.17853073993286,47.87838962171636,3.4285089320195965,3.457362149458616
327744.5438899,1742862.0,1190523.5,1711217704960.0,-592.0,0.36296749114990234,240.0,0.1471489816904068,-15744.0,9.652973175048828,2655.0,3866.769287109375,2526.0,1850.5494384765625,18034.0,202.45736694335938,4.939311504364014,0.951400876045227,0.4409732405249155,0.32267172065509175,-27.818742637597367,36.675314966910776,319.2437835192569,20.119680322133977,14.065736035557187,-21.8174007310805,-40.78363448460042,12.941884879869491,-21.920733057924267,-0.1386918262838255,0.055129631696102896,0.9887999297285114,0.03769080422715591,0.07971704967706784,0.9961047109955328,52.17853073993286,47.70584107582343,3.4285089320195965,3.444696807249007
327744.6447421,1743118.0,1190531.25,1711217704960.0,-560.0,0.3433476388454437,304.0,0.18638871610164642,-15808.0,9.69221305847168,2661.0,3875.5078125,2535.0,1857.142822265625,18035.0,202.24832153320312,4.9444169998168945,0.9855495393276215,0.44059957680315104,0.3216559439164115,-27.881216312893486,36.79864871985598,317.6972932688228,20.119680322133977,14.065736035557187,-21.8174007310805,-40.78363448460042,12.941884879869491,-21.920733057924267,-0.1394976992493694,0.05645197995529666,0.988611938964556,0.03769080422715591,0.07971704967706784,0.9961047109955328,52.165176971998996,47.70584107582343,3.427462163100838,3.444696807249007
327744.7690466,1743374.0,1190539.0,1711217704960.0,-528.0,0.3237277865409851,288.0,0.17657878994941711,-15664.0,9.603923797607422,2670.0,3888.615478515625,2556.0,1872.5274658203125,18034.0,202.45736694335938,4.939311504364014,0.9855495393276215,0.4405342903203054,0.32176069784881,-27.97024279328033,36.840975481853256,318.32695097822915,20.119680322133977,14.065736035557187,-21.8174007310805,-40.78363448460042,12.941884879869491,-21.920733057924267,-0.1394976992493694,0.05645197995529666,0.988611938964556,0.03736038987909329,0.07971285376094397,0.9961174941809668,52.165176971998996,47.75068253750224,3.427462163100838,3.4482224447577634
327744.8695761,1743630.0,1190546.875,1711217704960.0,-496.0,0.3041079044342041,288.0,0.17657878994941711,-15696.0,9.623543739318848,2663.0,3878.42041015625,2555.0,1871.794921875,18034.0,202.45736694335938,4.939311504364014,0.95997753739357,0.44130435198411994,0.3226868798252839,-27.846290438725454,36.935509602997286,321.561845060564,20.119680322133977,14.065736035557187,-21.8174007310805,-40.78363448460042,12.941884879869491,-21.920733057924267,-0.13785292188513334,0.055733877374291516,0.9888833636180552,0.03736038987909329,0.07971285376094397,0.9961174941809668,51.87310578707395,47.75068253750224,3.4083909985652894,3.4482224447577634
327744.9705632,1743886.0,1190554.75,1711217704960.0,-496.0,0.3041079044342041,288.0,0.17657878994941711,-15680.0,9.613734245300293,2656.0,3868.2255859375,2536.0,1857.87548828125,18034.0,202.45736694335938,4.939311504364014,0.95997753739357,0.44131465544334425,0.3219967513008285,-27.827493641659093,37.12086801320276,321.3858944553074,20.119680322133977,14.065736035557187,-21.8174007310805,-40.78363448460042,12.941884879869491,-21.920733057924267,-0.13785292188513334,0.055733877374291516,0.9888833636180552,0.03742203651564267,0.0808477286145992,0.9960237125494964,51.87310578707395,47.61645377216802,3.4083909985652894,3.4380190194235674
327745.071585,1744142.0,1190562.5,1711217704960.0,-528.0,0.3237277865409851,256.0,0.1569589227437973,-15664.0,9.603923797607422,2655.0,3866.769287109375,2528.0,1852.0146484375,18034.0,202.45736694335938,4.939311504364014,0.9669291079044342,0.44084047144514826,0.3208842459202341,-27.90643233451651,37.22294849272739,319.39706836628807,20.119680322133977,14.065736035557187,-21.8174007310805,-40.78363448460042,12.941884879869491,-21.920733057924267,-0.13887385530743718,0.05710841659502485,0.9886620661611621,0.03742203651564267,0.0808477286145992,0.9960237125494964,52.21942537509547,47.61645377216802,3.4307754974387015,3.4380190194235674
327745.1726331,1744398.0,1190570.25,1711217704960.0,-576.0,0.35315757989883423,208.0,0.12752912938594818,-15728.0,9.643163681030273,2643.0,3849.292236328125,2507.0,1836.6300048828125,18034.0,202.45736694335938,4.939311504364014,0.9669291079044342,0.4411266432952471,0.3203364014742298,-27.517683666618716,37.05997671599203,316.6298939702315,20.119680322133977,14.065736035557187,-21.8174007310805,-40.78363448460042,12.941884879869491,-21.920733057924267,-0.13887385530743718,0.05710841659502485,0.9886620661611621,0.03887011193572284,0.0810150577678622,0.9959546549983962,52.21942537509547,47.58021677369056,3.4307754974387015,3.4353453616518843
327745.2735921,1744654.0,1190578.125,1711217704960.0,-560.0,0.3433476388454437,224.0,0.1373390555381775,-15712.0,9.633354187011719,2663.0,3878.42041015625,2529.0,1852.7471923828125,18034.0,202.45736694335938,4.939311504364014,0.9899096488952637,0.44170406230481873,0.32071050885050956,-27.423547890227624,37.227507502858984,319.03083840932834,20.119680322133977,14.065736035557187,-21.8174007310805,-40.78363448460042,12.941884879869491,-21.920733057924267,-0.13764505595674753,0.05712255851961657,0.9888330758418413,0.03887011193572284,0.0810150577678622,0.9959546549983962,51.8931322761807,47.58021677369056,3.4093263169986274,3.4353453616518843
327745.3745175,1744910.0,1190586.0,1711217704960.0,-576.0,0.35315757989883423,208.0,0.12752912938594818,-15696.0,9.623543739318848,2658.0,3871.138427734375,2533.0,1855.6776123046875,18034.0,202.45736694335938,4.939311504364014,0.9899096488952637,0.441626995551076,0.3209917826154405,-27.528926980606713,37.233738990551615,319.7959689139243,20.119680322133977,14.065736035557187,-21.8174007310805,-40.78363448460042,12.941884879869491,-21.920733057924267,-0.13764505595674753,0.05712255851961657,0.9888330758418413,0.03847875677986482,0.08074451842607008,0.995991821262011,51.8931322761807,47.52342877981333,3.4093263169986274,3.4318119795461053
327745.4756647,1745166.0,1190593.75,1711217704960.0,-544.0,0.3335376977920532,256.0,0.1569589227437973,-15696.0,9.623543739318848,2667.0,3884.24609375,2549.0,1867.3992919921875,18034.0,202.45736694335938,4.939311504364014,1.0,0.45989355150858835,0.32529127836782157,-26.461339302814366,52.81056730121131,470.57040590528726,nan,nan,nan,-91.29294879655745,50.15593727974024,-25.201532943514362,nan,nan,nan,0.12966321898748617,0.00530926004294212,0.9915438776976032,nan,47.52342877981333,nan,3.4318119795461053
327745.5773422,1745422.0,1190601.5,1711217704960.0,-592.0,0.36296749114990234,304.0,0.18638871610164642,-15728.0,9.643163681030273,2669.0,3887.158935546875,2565.0,1879.120849609375,18033.0,202.66683959960938,4.934206485748291,0.9766546487808228,0.4406220967250537,0.31990046872703226,-28.02807448741514,37.52170637156825,319.4498960559022,20.119680322133977,14.065736035557187,-21.8174007310805,-40.78363448460042,12.941884879869491,-21.920733057924267,-0.13920026066307936,0.05847521071255229,0.9885362599133395,0.037068981105180324,0.08118700866217453,0.9960093173581819,52.10862004068584,47.47496013399147,3.423394085574937,3.428348126070164
327745.679558,1745678.0,1190609.375,1711217704960.0,-512.0,0.3139178454875946,256.0,0.1569589227437973,-15664.0,9.603923797607422,2664.0,3879.876953125,2552.0,1869.5970458984375,18034.0,202.45736694335938,4.939311504364014,0.9766546487808228,0.4408646604962357,0.3200173972442719,-27.700944496351752,37.21738432898257,317.16198490804476,20.119680322133977,14.065736035557187,-21.8174007310805,-40.78363448460042,12.941884879869491,-21.920733057924267,-0.13920026066307936,0.05847521071255229,0.9885362599133395,0.03828913538235887,0.08034957051576373,0.9960310681046065,52.10862004068584,47.68901842090491,3.423394085574937,3.443399797610191
327745.7805646,1745934.0,1190617.25,1711217704960.0,-544.0,0.3335376977920532,208.0,0.12752912938594818,-15712.0,9.633354187011719,2658.0,3871.138427734375,2543.0,1863.003662109375,18033.0,202.66683959960938,4.934206485748291,1.0,0.43984716902631266,0.31938489740497944,-27.861394617005907,36.91795625392079,313.00268793198063,20.119680322133977,14.065736035557187,-21.8174007310805,-40.78363448460042,12.941884879869491,-21.920733057924267,-0.1413614467798074,0.05840432295389155,0.9882337154866845,0.03828913538235887,0.08034957051576373,0.9960310681046065,52.01120927199703,47.68901842090491,3.417222550551206,3.443399797610191
327745.8814379,1746190.0,1190625.0,1711217704960.0,-512.0,0.3139178454875946,240.0,0.1471489816904068,-15712.0,9.633354187011719,2672.0,3891.5283203125,2557.0,1873.2601318359375,18034.0,202.45736694335938,4.939311504364014,1.0,0.4403278767881802,0.31914938055802156,-27.228564214885942,36.46594693888299,308.6182022806047,20.119680322133977,14.065736035557187,-21.8174007310805,-40.78363448460042,12.941884879869491,-21.920733057924267,-0.1413614467798074,0.05840432295389155,0.9882337154866845,0.04071315361598137,0.07947451726747293,0.9960051406633118,52.01120927199703,47.79939982633534,3.417222550551206,3.451545322399613
327745.9816462,1746446.0,1190632.75,1711217704960.0,-496.0,0.3041079044342041,288.0,0.17657878994941711,-15696.0,9.623543739318848,2669.0,3887.158935546875,2567.0,1880.5860595703125,18033.0,202.66683959960938,4.934206485748291,0.9615432024002075,0.4410393269459435,0.31992771449947743,-27.111638213017784,36.57013670724988,311.4325048665577,20.119680322133977,14.065736035557187,-21.8174007310805,-40.78363448460042,12.941884879869491,-21.920733057924267,-0.13984698507916454,0.0578770923269294,0.9884801783283508,0.04071315361598137,0.07947451726747293,0.9960051406633118,52.03648869502813,47.79939982633534,3.419022646367371,3.451545322399613
327746.0825409,1746702.0,1190640.625,1711217704960.0,-480.0,0.2942979633808136,224.0,0.1373390555381775,-15664.0,9.603923797607422,2664.0,3879.876953125,2555.0,1871.794921875,18034.0,202.45736694335938,4.939311504364014,0.9866714179515839,0.4410856685027119,0.3195626491010972,-27.105597832166836,36.69791023133601,311.6236603111096,20.119680322133977,14.065736035557187,-21.8174007310805,-40.78363448460042,12.941884879869491,-21.920733057924267,-0.13975421186637296,0.05855679714591831,0.9884532673695913,0.04071315361598137,0.07947451726747293,0.9960051406633118,51.93241955488648,47.79939982633534,3.412010219142421,3.451545322399613
327746.1850161,1746958.0,1190648.5,1711217704960.0,-528.0,0.3237277865409851,192.0,0.11771918833255768,-15616.0,9.574494361877441,2657.0,3869.68212890625,2542.0,1862.2711181640625,18033.0,202.66683959960938,4.934206485748291,0.9866714179515839,0.4411273071194174,0.32024674245542106,-27.055734251117137,36.46386009373329,311.31565360878056,20.119680322133977,14.065736035557187,-21.8174007310805,-40.78363448460042,12.941884879869491,-21.920733057924267,-0.13975421186637296,0.05855679714591831,0.9884532673695913,0.0409133112105036,0.07821440491714163,0.996096685984473,51.93241955488648,47.6211421049362,3.412010219142421,3.438528621966385
327746.2856647,1747214.0,1190656.25,1711217704960.0,-528.0,0.3237277865409851,224.0,0.1373390555381775,-15696.0,9.623543739318848,2665.0,3881.333251953125,2550.0,1868.1318359375,18033.0,202.66683959960938,4.934206485748291,0.9992268979549408,0.4403886724516036,0.3193528679297549,-27.17786439117424,36.38141243904137,308.39812072160373,20.119680322133977,14.065736035557187,-21.8174007310805,-40.78363448460042,12.941884879869491,-21.920733057924267,-0.14132775780672333,0.059251589524395944,0.9881880964736199,0.0409133112105036,0.07821440491714163,0.996096685984473,52.15822844285697,47.6211421049362,3.426835092919295,3.438528621966385
327746.3875158,1747470.0,1190664.0,1711217704960.0,-528.0,0.3237277865409851,240.0,0.1471489816904068,-15696.0,9.623543739318848,2670.0,3888.615478515625,2562.0,1876.923095703125,18033.0,202.66683959960938,4.934206485748291,0.9992268979549408,0.440488312397311,0.3196108744416165,-27.051018853912325,36.20566779470964,307.5365398679278,20.119680322133977,14.065736035557187,-21.8174007310805,-40.78363448460042,12.941884879869491,-21.920733057924267,-0.14132775780672333,0.059251589524395944,0.9881880964736199,0.04141108257147139,0.07751759992895427,0.996130585787583,52.15822844285697,47.58292167776369,3.426835092919295,3.435844022010489
327746.4878409,1747726.0,1190671.875,1711217704960.0,-512.0,0.3139178454875946,256.0,0.1569589227437973,-15680.0,9.613734245300293,2664.0,3879.876953125,2555.0,1871.794921875,18033.0,202.66683959960938,4.934206485748291,0.9664075672626495,0.44129587110631896,0.3208533902083437,-26.915494574933597,36.21703997912799,310.70784948076243,20.119680322133977,14.065736035557187,-21.8174007310805,-40.78363448460042,12.941884879869491,-21.920733057924267,-0.13960377372709365,0.0580365321894656,0.9885052085308279,0.04141108257147139,0.07751759992895427,0.996130585787583,51.921129217534975,47.58292167776369,3.4113784667905156,3.435844022010489
327746.5885971,1747982.0,1190679.75,1711217704960.0,-464.0,0.2844880521297455,256.0,0.1569589227437973,-15648.0,9.594114303588867,2657.0,3869.68212890625,2539.0,1860.0732421875,18033.0,202.66683959960938,4.934206485748291,0.9664075672626495,0.4415933795919818,0.32128241187385875,-26.536891067420367,35.78718002975336,308.0834748853238,20.119680322133977,14.065736035557187,-21.8174007310805,-40.78363448460042,12.941884879869491,-21.920733057924267,-0.13960377372709365,0.0580365321894656,0.9885052085308279,0.04289869293771642,0.07601366505615713,0.9961835297117524,51.921129217534975,47.65338909593362,3.4113784667905156,3.4405037400838445
327746.6899516,1748238.0,1190687.5,1711217704960.0,-512.0,0.3139178454875946,240.0,0.1471489816904068,-15728.0,9.643163681030273,2670.0,3888.615478515625,2559.0,1874.7252197265625,18033.0,202.66683959960938,4.934206485748291,0.9664075672626495,0.4415859052570065,0.3204289792885857,-26.541265753624273,36.02885796411079,308.0646467695626,20.119680322133977,14.065736035557187,-21.8174007310805,-40.78363448460042,12.941884879869491,-21.920733057924267,-0.13960377372709365,0.0580365321894656,0.9885052085308279,0.042872270063458964,0.07746753759960667,0.9960726625492035,51.921129217534975,47.356790436069915,3.4113784667905156,3.4181755864933954
327746.7906738,1748494.0,1190695.25,1711217704960.0,-528.0,0.3237277865409851,256.0,0.1569589227437973,-15712.0,9.633354187011719,2671.0,3890.07177734375,2570.0,1882.783935546875,18033.0,202.66683959960938,4.934206485748291,1.0,0.44081792669201236,0.31813716953867144,-26.676751340818193,36.335824358027544,305.110730910398,20.119680322133977,14.065736035557187,-21.8174007310805,-40.78363448460042,12.941884879869491,-21.920733057924267,-0.14125844853372604,0.06109486164368155,0.9880857597387911,0.042872270063458964,0.07746753759960667,0.9960726625492035,51.925962149190376,47.356790436069915,3.4109092826979257,3.4181755864933954
327746.8914453,1748750.0,1190703.125,1711217704960.0,-512.0,0.3139178454875946,240.0,0.1471489816904068,-15696.0,9.623543739318848,2664.0,3879.876953125,2561.0,1876.1904296875,18033.0,202.66683959960938,4.934206485748291,0.9925107359886169,0.44077371829018014,0.3104616422049056,-26.713150359633694,38.50252453204223,305.0316848323272,20.119680322133977,14.065736035557187,-21.8174007310805,-40.78363448460042,12.941884879869491,-21.920733057924267,-0.1414576640051421,0.07420848116730411,0.9871589692734652,0.042872270063458964,0.07746753759960667,0.9960726625492035,51.82933204858856,47.356790436069915,3.400907081272894,3.4181755864933954
327746.9922837,1749006.0,1190711.0,1711217704960.0,-544.0,0.3335376977920532,224.0,0.1373390555381775,-15584.0,9.554874420166016,2669.0,3887.158935546875,2564.0,1878.3883056640625,18032.0,202.8767547607422,4.92910099029541,0.9925107359886169,0.4410149993570192,0.30280473320344514,-26.367579245106135,40.2993927772371,302.19875031632074,20.119680322133977,14.065736035557187,-21.8174007310805,-40.78363448460042,12.941884879869491,-21.920733057924267,-0.1414576640051421,0.07420848116730411,0.9871589692734652,0.044171856597124345,0.08970018387516215,0.9949888060161908,51.82933204858856,47.409893676487776,3.400907081272894,3.415946480468275
327747.0936406,1749262.0,1190718.75,1711217704960.0,-544.0,0.3335376977920532,208.0,0.12752912938594818,-15632.0,9.584303855895996,2670.0,3888.615478515625,2573.0,1884.981689453125,18032.0,202.8767547607422,4.92910099029541,0.9875107359886169,0.4417862244130991,0.28370311892340094,-25.320661298708373,44.42680165211719,293.7955884615662,20.119680322133977,14.065736035557187,-21.8174007310805,-40.78363448460042,12.941884879869491,-21.920733057924267,-0.1414576640051421,0.07420848116730411,0.9871589692734652,0.0482916098019039,0.11965225540731791,0.9916406900680722,51.82933204858856,47.50250906013383,3.400907081272894,3.4100705167727274
327747.1949436,1749518.0,1190726.5,1711217704960.0,-512.0,0.3139178454875946,256.0,0.1569589227437973,-15728.0,9.643163681030273,2670.0,3888.615478515625,2570.0,1882.783935546875,18032.0,202.8767547607422,4.92910099029541,0.9686757130656033,0.4416571847005356,0.2664876653109942,-25.405784651975353,49.123533290971025,293.37503000346084,20.119680322133977,14.065736035557187,-21.8174007310805,-40.78363448460042,12.941884879869491,-21.920733057924267,-0.14198722009959303,0.1036400459361056,0.9844279405861821,0.0482916098019039,0.11965225540731791,0.9916406900680722,51.79903846903332,47.50250906013383,3.391831331962555,3.4100705167727274
327747.296568,1749774.0,1190734.375,1711217704960.0,-528.0,0.3237277865409851,208.0,0.12752912938594818,-15760.0,9.6627836227417,2665.0,3881.333251953125,2567.0,1880.5860595703125,18033.0,202.66683959960938,4.934206485748291,0.995,0.4426654652242269,0.25964225119342,-25.253835474555757,51.65490691131092,297.0319522850251,20.119680322133977,14.065736035557187,-21.8174007310805,-40.78363448460042,12.941884879869491,-21.920733057924267,-0.13994741677544661,0.11662563651350656,0.9832665871703863,0.0482916098019039,0.11965225540731791,0.9916406900680722,51.77197055640943,47.50250906013383,3.386939400753737,3.4100705167727274
327747.3978871,1750030.0,1190742.25,1711217704960.0,-480.0,0.2942979633808136,256.0,0.1569589227437973,-15760.0,9.6627836227417,2657.0,3869.68212890625,2543.0,1863.003662109375,18033.0,202.66683959960938,4.934206485748291,0.9910507798194885,0.44368156472259523,0.2485024936053618,-24.022852677201406,53.080873090393496,287.7457076974787,20.119680322133977,14.065736035557187,-21.8174007310805,-40.78363448460042,12.941884879869491,-21.920733057924267,-0.13994741677544661,0.11662563651350656,0.9832665871703863,0.0534667147393836,0.135538440972197,0.9893283789691891,51.77197055640943,47.56523015980718,3.386939400753737,3.408847042892519
327747.4988949,1750286.0,1190750.0,1711217704960.0,-496.0,0.3041079044342041,272.0,0.1667688488960266,-15680.0,9.613734245300293,2662.0,3876.964111328125,2546.0,1865.201416015625,18033.0,202.66683959960938,4.934206485748291,0.9910507798194885,0.44401782721709937,0.24611244868325477,-23.96826576577302,53.951040671190455,288.9054859200355,20.119680322133977,14.065736035557187,-21.8174007310805,-40.78363448460042,12.941884879869491,-21.920733057924267,-0.13926878433117187,0.12114899848706072,0.9828159165767003,0.0534667147393836,0.135538440972197,0.9893283789691891,52.317272674747386,47.56523015980718,3.4217335130121467,3.408847042892519
327747.6005059,1750542.0,1190757.75,1711217704960.0,-496.0,0.3041079044342041,288.0,0.17657878994941711,-15760.0,9.6627836227417,2672.0,3891.5283203125,2559.0,1874.7252197265625,18032.0,202.8767547607422,4.92910099029541,1.0,0.44503807723035804,0.23970619530790382,-22.822479575896175,54.09337708803254,280.5084082390946,20.119680322133977,14.065736035557187,-21.8174007310805,-40.78363448460042,12.941884879869491,-21.920733057924267,-0.13926878433117187,0.12114899848706072,0.9828159165767003,0.05858270651841229,0.14340652651118682,0.9879284562411257,52.317272674747386,47.72918127465092,3.4217335130121467,3.4178240052683435
327747.7015766,1750798.0,1190765.625,1711217704960.0,-528.0,0.3237277865409851,304.0,0.18638871610164642,-15712.0,9.633354187011719,2664.0,3879.876953125,2555.0,1871.794921875,18033.0,202.66683959960938,4.934206485748291,0.9812985956668854,0.4447160487195617,0.24090285905787234,-22.881048761668005,53.572324255384814,279.45445924725243,20.119680322133977,14.065736035557187,-21.8174007310805,-40.78363448460042,12.941884879869491,-21.920733057924267,-0.13993275610605363,0.11869397515410698,0.9830211411921311,0.05858270651841229,0.14340652651118682,0.9879284562411257,52.07796760676684,47.72918127465092,3.4066443374010573,3.4178240052683435
327747.8026658,1751054.0,1190773.5,1711217704960.0,-480.0,0.2942979633808136,256.0,0.1569589227437973,-15648.0,9.594114303588867,2653.0,3863.8564453125,2532.0,1854.945068359375,18032.0,202.8767547607422,4.92910099029541,0.9754935204982758,0.44435571536516083,0.2435924121177776,-23.27957574842354,53.411723126938526,282.3912344893841,20.119680322133977,14.065736035557187,-21.8174007310805,-40.78363448460042,12.941884879869491,-21.920733057924267,-0.13993275610605363,0.11869397515410698,0.9830211411921311,0.056772227612259876,0.13991604045618153,0.988534478809417,52.07796760676684,48.15881217297148,3.4066443374010573,3.45016056363133
327747.9032904,1751310.0,1190781.25,1711217704960.0,-512.0,0.3139178454875946,272.0,0.1667688488960266,-15712.0,9.633354187011719,2661.0,3875.5078125,2538.0,1859.3406982421875,18032.0,202.8767547607422,4.92910099029541,0.9618510007858276,0.444117276100119,0.24295284741820966,-23.536123904735362,53.9130424450606,284.1153190851282,20.119680322133977,14.065736035557187,-21.8174007310805,-40.78133961908986,12.945680758129276,-21.878192093781614,-0.13993275610605363,0.11869397515410698,0.9830211411921311,0.05560266536240351,0.14167107867570608,0.988350974639808,52.07796760676684,47.90112637499153,3.4066443374010573,3.4244019669118426
327748.0045737,1751566.0,1190789.0,1711217704960.0,-512.0,0.3139178454875946,272.0,0.1667688488960266,-15728.0,9.643163681030273,2668.0,3885.70263671875,2551.0,1868.864501953125,18032.0,202.8767547607422,4.92910099029541,0.9364792704582214,0.44405112701514743,0.24288365323359984,-23.548845536432104,53.889679473992146,283.8909098214559,20.119680322133977,14.065736035557187,-21.8174007310805,-40.78133961908986,12.945680758129276,-21.878192093781614,-0.1400737085101235,0.11873122754728264,0.9829965675369047,0.05560266536240351,0.14167107867570608,0.988350974639808,51.9891899939654,47.90112637499153,3.4007615625097833,3.4244019669118426
327748.1055053,1751822.0,1190796.875,1711217704960.0,-496.0,0.3041079044342041,224.0,0.1373390555381775,-15696.0,9.623543739318848,2665.0,3881.333251953125,2554.0,1871.062255859375,18032.0,202.8767547607422,4.92910099029541,0.9611048102378845,0.4720672536335596,0.25509451124091986,-17.211164659316253,83.220349170393,468.2164911749368,nan,nan,nan,-91.28675013448513,50.15649166884846,-25.159216540419454,nan,nan,nan,0.14815117095033775,0.06612771500308903,0.9867514154307124,nan,47.90112637499153,nan,3.4244019669118426
327748.2066143,1752078.0,1190804.75,1711217704960.0,-560.0,0.3433476388454437,224.0,0.1373390555381775,-15680.0,9.613734245300293,2656.0,3868.2255859375,2535.0,1857.142822265625,18032.0,202.8767547607422,4.92910099029541,0.9292546808719635,0.4451336174750087,0.24547178214920518,-23.914779280624487,55.22089595455418,294.7814324143874,20.119680322133977,14.065736035557187,-21.8174007310805,-40.78133961908986,12.945680758129276,-21.878192093781614,-0.136425566034448,0.11683042313041385,0.9837371179148161,0.05252070583158455,0.14299756761112142,0.988328523880726,51.816130761583445,47.72415890684495,3.389504224973585,3.410896594429091
327748.3075539,1752334.0,1190812.5,1711217704960.0,-544.0,0.3335376977920532,272.0,0.1667688488960266,-15696.0,9.623543739318848,2669.0,3887.158935546875,2553.0,1870.3297119140625,18032.0,202.8767547607422,4.92910099029541,0.9292546808719635,0.4448406283568464,0.24682842502998348,-24.259971180792895,55.314945154748656,297.32706755312864,20.119680322133977,14.065736035557187,-21.8174007310805,-40.78133961908986,12.945680758129276,-21.878192093781614,-0.136425566034448,0.11683042313041385,0.9837371179148161,0.05105250315303931,0.14154398572962532,0.9886146580066374,51.816130761583445,47.934607689400515,3.389504224973585,3.4263182373805523
327748.4091897,1752590.0,1190820.25,1711217704960.0,-528.0,0.3237277865409851,256.0,0.1569589227437973,-15664.0,9.603923797607422,2646.0,3853.66162109375,2520.0,1846.15380859375,18032.0,202.8767547607422,4.92910099029541,1.0,0.44383889505248797,0.24495462948364777,-24.45385466214823,55.164180750435264,293.6573886061721,20.119680322133977,14.065736035557187,-21.8174007310805,-40.78133961908986,12.945680758129276,-21.878192093781614,-0.13857908233595845,0.11882235027252484,0.9831973794791344,0.05105250315303931,0.14154398572962532,0.9886146580066374,52.08229214289489,47.934607689400515,3.4065213323272974,3.4263182373805523
327748.5118598,1752846.0,1190828.125,1711217704960.0,-528.0,0.3237277865409851,272.0,0.1667688488960266,-15728.0,9.643163681030273,2667.0,3884.24609375,2544.0,1863.7362060546875,18032.0,202.8767547607422,4.92910099029541,1.0,0.44378022357548463,0.24507117885774854,-24.522441529994182,55.22326574122805,294.1439678638799,20.119680322133977,14.065736035557187,-21.8174007310805,-40.78133961908986,12.945680758129276,-21.878192093781614,-0.13857908233595845,0.11882235027252484,0.9831973794791344,0.050759955164906986,0.14151433299716892,0.988633966899794,52.08229214289489,47.84154950246749,3.4065213323272974,3.419596686858973
327748.6134724,1753102.0,1190836.0,1711217704960.0,-528.0,0.3237277865409851,224.0,0.1373390555381775,-15632.0,9.584303855895996,2667.0,3884.24609375,2561.0,1876.1904296875,18032.0,202.8767547607422,4.92910099029541,0.9384748339653015,0.44462839104986385,0.24709998316857817,-24.357411642078844,55.22636269108304,297.25691457590653,20.119680322133977,14.065736035557187,-21.8174007310805,-40.78133961908986,12.945680758129276,-21.878192093781614,-0.13674953940363338,0.11637319359809001,0.9837463307604637,0.050759955164906986,0.14151433299716892,0.988633966899794,51.90463675075712,47.84154950246749,3.395189202254791,3.419596686858973
327748.7145667,1753358.0,1190843.75,1711217704960.0,-512.0,0.3139178454875946,240.0,0.1471489816904068,-15568.0,9.545063972473145,2670.0,3888.615478515625,2564.0,1878.3883056640625,18032.0,202.8767547607422,4.92910099029541,0.9163739085197449,0.4440998130384166,0.24815866250875906,-24.988948109303784,55.7692838134825,301.7990294644551,20.119680322133977,14.065736035557187,-21.8174007310805,-40.78133961908986,12.945680758129276,-21.878192093781614,-0.13674953940363338,0.11637319359809001,0.9837463307604637,0.04812327437829659,0.14122661398190187,0.9888069548533311,51.90463675075712,47.914764542445404,3.395189202254791,3.4245061333100497
327748.815499,1753614.0,1190851.5,1711217704960.0,-480.0,0.2942979633808136,272.0,0.1667688488960266,-15664.0,9.603923797607422,2669.0,3887.158935546875,2572.0,1884.2490234375,18031.0,203.08709716796875,4.9239959716796875,0.9778990745544434,0.4428947744603269,0.2463319618492643,-25.213315544806825,55.45913152869332,297.2722392086139,20.119680322133977,14.065736035557187,-21.8174007310805,-40.78133961908986,12.945680758129276,-21.878192093781614,-0.13933461387896667,0.11803701205991074,0.9831851957587481,0.04812327437829659,0.14122661398190187,0.9888069548533311,52.521526168957394,47.914764542445404,3.4352692529043507,3.4245061333100497
327748.9165637,1753870.0,1190859.375,1711217704960.0,-480.0,0.2942979633808136,256.0,0.1569589227437973,-15664.0,9.603923797607422,2667.0,3884.24609375,2568.0,1881.3187255859375,18032.0,202.8767547607422,4.92910099029541,0.9734365046024323,0.44303374594331685,0.24643238384546873,-25.18817355570853,55.52566775626075,297.78715064005706,20.119680322133977,14.065736035557187,-21.8174007310805,-40.78133961908986,12.945680758129276,-21.878192093781614,-0.13903836338455192,0.118035321012158,0.983227337140756,0.04812327437829659,0.14122661398190187,0.9888069548533311,52.08198168671345,47.914764542445404,3.406412746445242,3.4245061333100497
327749.0175607,1754126.0,1190867.25,1711217704960.0,-512.0,0.3139178454875946,240.0,0.1471489816904068,-15696.0,9.623543739318848,2668.0,3885.70263671875,2568.0,1881.3187255859375,18031.0,203.08709716796875,4.9239959716796875,0.9955374300479889,0.44293189216259216,0.24713173242052033,-25.314022488378924,55.49985384247295,298.7136490905282,20.119680322133977,14.065736035557187,-21.8174007310805,-40.78133961908986,12.945680758129276,-21.878192093781614,-0.13903836338455192,0.118035321012158,0.983227337140756,0.04760738502656517,0.1403383685412504,0.9889583809271816,52.08198168671345,48.07364286283635,3.406412746445242,3.436023970939652
327749.1185162,1754382.0,1190875.0,1711217704960.0,-560.0,0.3433476388454437,224.0,0.1373390555381775,-15728.0,9.643163681030273,2671.0,3890.07177734375,2574.0,1885.7142333984375,18031.0,203.08709716796875,4.9239959716796875,0.9955374300479889,0.44309515260580123,0.24763266452932098,-25.121571789442946,55.11499547709239,297.41323176544904,20.119680322133977,14.065736035557187,-21.8174007310805,-40.78133961908986,12.945680758129276,-21.878192093781614,-0.13903836338455192,0.118035321012158,0.983227337140756,0.04841331235893477,0.13903225077400388,0.9891037278421059,52.08198168671345,47.971129033169454,3.406412746445242,3.4289374074604675
327749.2195774,1754638.0,1190882.75,1711217704960.0,-528.0,0.3237277865409851,272.0,0.1667688488960266,-15696.0,9.623543739318848,2674.0,3894.44091796875,2584.0,1893.040283203125,18031.0,203.08709716796875,4.9239959716796875,0.9811622500419617,0.443442545992876,0.24817540529810078,-25.057115240826576,55.19749271831596,298.70574744968934,20.119680322133977,14.065736035557187,-21.8174007310805,-40.78133961908986,12.945680758129276,-21.878192093781614,-0.13829342373676123,0.1175277836578976,0.9833931812960811,0.04841331235893477,0.13903225077400388,0.9891037278421059,52.22114059302767,47.971129033169454,3.4155281039578487,3.4289374074604675
327749.3206216,1754894.0,1190890.625,1711217704960.0,-512.0,0.3139178454875946,256.0,0.1569589227437973,-15696.0,9.623543739318848,2667.0,3884.24609375,2575.0,1886.4468994140625,18032.0,202.8767547607422,4.92910099029541,0.9770197570323944,0.44350760757167257,0.24847976887854695,-24.98130175996423,55.01676877352571,298.1984017177361,20.119680322133977,14.065736035557187,-21.8174007310805,-40.78133961908986,12.945680758129276,-21.878192093781614,-0.13829342373676123,0.1175277836578976,0.9833931812960811,0.0487328528863958,0.13833572982128875,0.9891856928324247,52.22114059302767,48.162063225508,3.4155281039578487,3.4421730876224315
327749.4215807,1755150.0,1190898.5,1711217704960.0,-560.0,0.3433476388454437,240.0,0.1471489816904068,-15664.0,9.603923797607422,2667.0,3884.24609375,2574.0,1885.7142333984375,18031.0,203.08709716796875,4.9239959716796875,0.9433828294277191,0.44465708586634084,0.25050086752630796,-24.76266734829121,55.22711654065976,302.5391727021929,20.119680322133977,14.065736035557187,-21.8174007310805,-40.78133961908986,12.945680758129276,-21.878192093781614,-0.1358221929938472,0.11545831878197849,0.9839825753103462,0.0487328528863958,0.13833572982128875,0.9891856928324247,51.85163112410324,48.162063225508,3.3915787838841434,3.4421730876224315
327749.5222695,1755406.0,1190906.25,1711217704960.0,-480.0,0.2942979633808136,240.0,0.1471489816904068,-15632.0,9.584303855895996,2662.0,3876.964111328125,2558.0,1873.99267578125,18032.0,202.8767547607422,4.92910099029541,0.934003472328186,0.4446680199971099,0.2513395154467456,-24.754247772849908,54.986105967006765,302.54243098641257,20.119680322133977,14.065736035557187,-21.8174007310805,-40.78133961908986,12.945680758129276,-21.878192093781614,-0.1358221929938472,0.11545831878197849,0.9839825753103462,0.04877608911087568,0.13689258348012026,0.9893843104270382,51.85163112410324,47.95681614178414,3.3915787838841434,3.4276417439942883
327749.622579,1755662.0,1190914.0,1711217704960.0,-544.0,0.3335376977920532,224.0,0.1373390555381775,-15664.0,9.603923797607422,2671.0,3890.07177734375,2572.0,1884.2490234375,18031.0,203.08709716796875,4.9239959716796875,0.9749722480773926,0.44397165800101857,0.24973122520220614,-24.88885452570935,54.969419736431334,299.8976189719343,20.119680322133977,14.065736035557187,-21.8174007310805,-40.78133961908986,12.945680758129276,-21.878192093781614,-0.13732516102815678,0.11737457534119693,0.9835471565776926,0.04877608911087568,0.13689258348012026,0.9893843104270382,52.250133136909966,47.95681614178414,3.417261848175139,3.4276417439942883
327749.7235898,1755918.0,1190921.875,1711217704960.0,-560.0,0.3433476388454437,208.0,0.12752912938594818,-15680.0,9.613734245300293,2662.0,3876.964111328125,2559.0,1874.7252197265625,18032.0,202.8767547607422,4.92910099029541,0.9884940981864929,0.44402520139776164,0.2498957121359009,-24.826022688548157,54.84325841579221,299.46731005272136,20.119680322133977,14.065736035557187,-21.8174007310805,-40.78133961908986,12.945680758129276,-21.878192093781614,-0.13732516102815678,0.11737457534119693,0.9835471565776926,0.049039978208701325,0.1364643579644597,0.9894304217794385,52.250133136909966,48.260180797379874,3.417261848175139,3.449404884879349
327749.8246206,1756174.0,1190929.75,1711217704960.0,-592.0,0.36296749114990234,256.0,0.1569589227437973,-15600.0,9.56468391418457,2654.0,3865.312744140625,2534.0,1856.4102783203125,18031.0,203.08709716796875,4.9239959716796875,0.9666964709758759,0.44408170321016777,0.2502001790606211,-24.814533836072073,54.79496962520914,299.68026358978466,20.119680322133977,14.065736035557187,-21.8174007310805,-40.78133961908986,12.945680758129276,-21.878192093781614,-0.13720086492390265,0.11691930556697504,0.9836187262602666,0.049039978208701325,0.1364643579644597,0.9894304217794385,52.18548494674612,48.260180797379874,3.4130718787974015,3.449404884879349
327749.9262959,1756430.0,1190937.5,1711217704960.0,-544.0,0.3335376977920532,256.0,0.1569589227437973,-15696.0,9.623543739318848,2670.0,3888.615478515625,2557.0,1873.2601318359375,18031.0,203.08709716796875,4.9239959716796875,0.9666964709758759,0.4440220581308557,0.2505724303911341,-24.8875848013571,54.78815711949029,300.22279241772424,20.119680322133977,14.065736035557187,-21.8174007310805,-40.78133961908986,12.945680758129276,-21.878192093781614,-0.13720086492390265,0.11691930556697504,0.9836187262602666,0.04873898071555466,0.13600582500550804,0.9895084271108456,52.18548494674612,48.12432567654162,3.4130718787974015,3.4397210362157282
327750.0273372,1756686.0,1190945.25,1711217704960.0,-576.0,0.35315757989883423,256.0,0.1569589227437973,-15632.0,9.584303855895996,2643.0,3849.292236328125,2515.0,1842.4908447265625,18032.0,202.8767547607422,4.92910099029541,1.0,0.4435514108515375,0.2500557270779543,-24.97532927192868,54.61630659166994,298.45860307870805,20.119680322133977,14.065736035557187,-21.8174007310805,-40.78133961908986,12.945680758129276,-21.878192093781614,-0.13820767295654335,0.11723112782976632,0.9834406447791845,0.04873898071555466,0.13600582500550804,0.9895084271108456,52.523725405768054,48.12432567654162,3.4351963946335227,3.4397210362157282
327750.1284305,1756942.0,1190953.125,1711217704960.0,-512.0,0.3139178454875946,256.0,0.1569589227437973,-15632.0,9.584303855895996,2666.0,3882.789794921875,2542.0,1862.2711181640625,18031.0,203.08709716796875,4.9239959716796875,0.9589819014072418,0.4435763172220506,0.2508794687995558,-24.950145887242655,54.36087538336722,298.3425829182204,20.119680322133977,14.065736035557187,-21.8174007310805,-40.78133961908986,12.945680758129276,-21.878192093781614,-0.13820767295654335,0.11723112782976632,0.9834406447791845,0.04885253325187746,0.1345483694694691,0.9897020593431042,52.523725405768054,48.20485139754123,3.4351963946335227,3.445811992062568
327750.2295173,1757198.0,1190961.0,1711217704960.0,-528.0,0.3237277865409851,256.0,0.1569589227437973,-15728.0,9.643163681030273,2666.0,3882.789794921875,2548.0,1866.6666259765625,18031.0,203.08709716796875,4.9239959716796875,0.9380559325218201,0.44344632146019514,0.2507083326856785,-24.974332450232318,54.322223862151255,297.85917574019857,20.119680322133977,14.065736035557187,-21.8174007310805,-40.78133961908986,12.945680758129276,-21.878192093781614,-0.1384859739892804,0.11736628814670304,0.9833853717718732,0.04885253325187746,0.1345483694694691,0.9897020593431042,52.331556381483196,48.20485139754123,3.422637096509263,3.445811992062568
327750.3304586,1757454.0,1190968.75,1711217704960.0,-544.0,0.3335376977920532,208.0,0.12752912938594818,-15712.0,9.633354187011719,2667.0,3884.24609375,2563.0,1877.6556396484375,18031.0,203.08709716796875,4.9239959716796875,0.9790740311145782,0.4431829225327141,0.2508540229739462,-25.29019591140863,54.68675307270988,300.07614736949733,20.119680322133977,14.065736035557187,-21.8174007310805,-40.78133961908986,12.945680758129276,-21.878192093781614,-0.1384859739892804,0.11736628814670304,0.9833853717718732,0.04754035042814284,0.13504733874856978,0.9896980000879552,52.331556381483196,48.21034813213419,3.422637096509263,3.4459087673558733
327750.4309266,1757710.0,1190976.5,1711217704960.0,-592.0,0.36296749114990234,288.0,0.17657878994941711,-15712.0,9.633354187011719,2669.0,3887.158935546875,2564.0,1878.3883056640625,18030.0,203.29786682128906,4.918890476226807,1.0,0.44327384030112543,0.2512425863849187,-25.272516826454765,54.637606366729045,300.4197735685695,20.119680322133977,14.065736035557187,-21.8174007310805,-40.78133961908986,12.945680758129276,-21.878192093781614,-0.13828751527278993,0.1168082458972128,0.9834797388915005,0.04754035042814284,0.13504733874856978,0.9896980000879552,52.33005073413662,48.21034813213419,3.4226639828286434,3.4459087673558733
327750.5313624,1757966.0,1190984.375,1711217704960.0,-592.0,0.36296749114990234,320.0,0.19619865715503693,-15648.0,9.594114303588867,2669.0,3887.158935546875,2573.0,1884.981689453125,18031.0,203.08709716796875,4.9239959716796875,1.0,0.4434222772767125,0.251318049429998,-25.094698210102777,54.38985705109187,299.1813684098381,20.119680322133977,14.065736035557187,-21.8174007310805,-40.78133961908986,12.945680758129276,-21.878192093781614,-0.13828751527278993,0.1168082458972128,0.9834797388915005,0.04827795532386496,0.13450099377085897,0.9897366931181232,52.33005073413662,48.26278718609337,3.4226639828286434,3.4498207863039756
327750.6315312,1758222.0,1190992.25,1711217704960.0,-528.0,0.3237277865409851,224.0,0.1373390555381775,-15664.0,9.603923797607422,2655.0,3866.769287109375,2545.0,1864.4688720703125,18030.0,203.29786682128906,4.918890476226807,0.9711266756057739,0.4437475249467854,0.2517321927744772,-25.034283838053582,54.49144434601811,300.4038838435372,20.119680322133977,14.065736035557187,-21.8174007310805,-40.78133961908986,12.945680758129276,-21.878192093781614,-0.13759106589647213,0.1164939073666039,0.9836146949552623,0.04827795532386496,0.13450099377085897,0.9897366931181232,52.24867120276655,48.26278718609337,3.417409792093046,3.4498207863039756
327750.7326247,1758478.0,1191000.0,1711217704960.0,-480.0,0.2942979633808136,224.0,0.1373390555381775,-15648.0,9.594114303588867,2670.0,3888.615478515625,2563.0,1877.6556396484375,18030.0,203.29786682128906,4.918890476226807,0.9711266756057739,0.44390840939033127,0.2514089732013042,-24.840654642751428,54.33105401998611,299.0186374249195,20.119680322133977,14.065736035557187,-21.8174007310805,-40.78133961908986,12.945680758129276,-21.878192093781614,-0.13759106589647213,0.1164939073666039,0.9836146949552623,0.049081589345179644,0.13459151120298912,0.9896848602961685,52.24867120276655,48.176281835434324,3.417409792093046,3.4437116232944716
327750.8333664,1758734.0,1191007.75,1711217704960.0,-528.0,0.3237277865409851,288.0,0.17657878994941711,-15760.0,9.6627836227417,2671.0,3890.07177734375,2572.0,1884.2490234375,18030.0,203.29786682128906,4.918890476226807,1.0,0.443557924682051,0.2507568440864584,-24.90696624121309,54.280944127376,297.7124482088543,20.119680322133977,14.065736035557187,-21.8174007310805,-40.78133961908986,12.945680758129276,-21.878192093781614,-0.1383442603603684,0.11718696330045486,0.9834267035512919,0.049081589345179644,0.13459151120298912,0.9896848602961685,52.49192434438257,48.176281835434324,3.4332867909670695,3.4437116232944716
327750.9335464,1758990.0,1191015.625,1711217704960.0,-496.0,0.3041079044342041,208.0,0.12752912938594818,-15664.0,9.603923797607422,2668.0,3885.70263671875,2568.0,1881.3187255859375,18031.0,203.08709716796875,4.9239959716796875,1.0,0.4435744486346115,0.2506819949146972,-24.88700091328096,54.275592667399394,297.5674062232264,20.119680322133977,14.065736035557187,-21.8174007310805,-40.78133961908986,12.945680758129276,-21.878192093781614,-0.1383442603603684,0.11718696330045486,0.9834267035512919,0.04916464314395621,0.1346708710032587,0.9896699421361401,52.49192434438257,48.16852728523458,3.4332867909670695,3.4432443038479565
327751.0346128,1759246.0,1191023.5,1711217704960.0,-496.0,0.3041079044342041,208.0,0.12752912938594818,-15664.0,9.603923797607422,2653.0,3863.8564453125,2539.0,1860.0732421875,18030.0,203.29786682128906,4.918890476226807,0.9490635395050049,0.4434639800331249,0.2510551871611729,-24.905731170888302,54.09652317372674,297.1603726520418,20.119680322133977,14.065736035557187,-21.8174007310805,-40.78133961908986,12.945680758129276,-21.878192093781614,-0.1385734597776907,0.11640847186792724,0.9834868905697801,0.04916464314395621,0.1346708710032587,0.9896699421361401,52.67828199976216,48.16852728523458,3.44565594300939,3.4432443038479565
327751.1356259,1759502.0,1191031.25,1711217704960.0,-496.0,0.3041079044342041,256.0,0.1569589227437973,-15648.0,9.594114303588867,2662.0,3876.964111328125,2542.0,1862.2711181640625,18031.0,203.08709716796875,4.9239959716796875,0.9368869066238403,0.4432563645951714,0.2517491340254767,-25.15646984611096,54.22830563357092,298.9611877419532,20.119680322133977,14.065736035557187,-21.8174007310805,-40.78133961908986,12.945680758129276,-21.878192093781614,-0.1385734597776907,0.11640847186792724,0.9834868905697801,0.04812351442498074,0.13408863500109364,0.989800164337697,52.67828199976216,48.31801072829981,3.44565594300939,3.454232449536576
327751.2361192,1759758.0,1191039.0,1711217704960.0,-496.0,0.3041079044342041,240.0,0.1471489816904068,-15680.0,9.613734245300293,2669.0,3887.158935546875,2559.0,1874.7252197265625,18030.0,203.29786682128906,4.918890476226807,0.9789709150791168,0.4437342288669335,0.2518980769769169,-25.069630674668517,54.508022715106534,300.75651755063257,20.119680322133977,14.065736035557187,-21.8174007310805,-40.78133961908986,12.945680758129276,-21.878192093781614,-0.137556710824043,0.116738316780938,0.9835905228815617,0.04812351442498074,0.13408863500109364,0.989800164337697,52.18293233078933,48.31801072829981,3.4131038666359768,3.454232449536576
327751.3371428,1760014.0,1191046.875,1711217704960.0,-464.0,0.2844880521297455,176.0,0.10790925472974777,-15696.0,9.623543739318848,2668.0,3885.70263671875,2559.0,1874.7252197265625,18031.0,203.08709716796875,4.9239959716796875,0.9911475479602814,0.4437702457923506,0.25178622824671126,-25.025827753100863,54.48242140551011,300.4401761169663,20.119680322133977,14.065736035557187,-21.8174007310805,-40.78133961908986,12.945680758129276,-21.878192093781614,-0.137556710824043,0.116738316780938,0.9835905228815617,0.04830399057177837,0.13417544572429888,0.9897796089329821,52.18293233078933,48.294451009918525,3.4131038666359768,3.4527981440749898
327751.4387667,1760270.0,1191054.75,1711217704960.0,-480.0,0.2942979633808136,256.0,0.1569589227437973,-15664.0,9.603923797607422,2654.0,3865.312744140625,2537.0,1858.6080322265625,18031.0,203.08709716796875,4.9239959716796875,0.9875569343566895,0.44326696543572164,0.2515839073697044,-25.117585836652182,54.2012457498151,298.55357147089364,20.119680322133977,14.065736035557187,-21.8174007310805,-40.78133961908986,12.945680758129276,-21.878192093781614,-0.13862809715999355,0.11646918292101542,0.9834720027064879,0.04830399057177837,0.13417544572429888,0.9897796089329821,52.358051580701755,48.294451009918525,3.4247568334240883,3.4527981440749898
327751.5394664,1760526.0,1191062.5,1711217704960.0,-528.0,0.3237277865409851,288.0,0.17657878994941711,-15648.0,9.594114303588867,2668.0,3885.70263671875,2548.0,1866.6666259765625,18030.0,203.29786682128906,4.918890476226807,0.9875569343566895,0.44333651965544457,0.2511330936136199,-25.032264268371065,54.21457520585395,297.9254046293794,20.119680322133977,14.065736035557187,-21.8174007310805,-40.78133961908986,12.945680758129276,-21.878192093781614,-0.13862809715999355,0.11646918292101542,0.9834720027064879,0.048655561196941206,0.13473811209844733,0.9896859489316581,52.358051580701755,48.534256620997226,3.4247568334240883,3.469718312187135
327751.6403578,1760782.0,1191070.25,1711217704960.0,-576.0,0.35315757989883423,256.0,0.1569589227437973,-15632.0,9.584303855895996,2670.0,3888.615478515625,2564.0,1878.3883056640625,18030.0,203.29786682128906,4.918890476226807,1.0,0.4424510240265477,0.2498830771370062,-25.194759787869863,53.97927977712929,294.67107439263026,20.119680322133977,14.065736035557187,-21.8174007310805,-40.78133961908986,12.945680758129276,-21.878192093781614,-0.14052297699313632,0.11753502392041765,0.9830761980075671,0.048655561196941206,0.13473811209844733,0.9896859489316581,52.849815109378554,48.534256620997226,3.4568618796608006,3.469718312187135
327751.7406349,1761038.0,1191078.125,1711217704960.0,-512.0,0.3139178454875946,304.0,0.18638871610164642,-15632.0,9.584303855895996,2670.0,3888.615478515625,2566.0,1879.853515625,18030.0,203.29786682128906,4.918890476226807,1.0,0.4424003389437129,0.25003388278579985,-25.25560128787879,54.015910235369,295.10053706208134,20.119680322133977,14.065736035557187,-21.8174007310805,-40.78133961908986,12.945680758129276,-21.878192093781614,-0.14052297699313632,0.11753502392041765,0.9830761980075671,0.048401330984804584,0.13462781564372522,0.9897134243880389,52.849815109378554,48.3401702719932,3.4568618796608006,3.455997245530283
327751.8416383,1761294.0,1191086.0,1711217704960.0,-560.0,0.3433476388454437,288.0,0.17657878994941711,-15584.0,9.554874420166016,2665.0,3881.333251953125,2565.0,1879.120849609375,18030.0,203.29786682128906,4.918890476226807,0.9517297148704529,0.44369536769726003,0.25253480102709636,-25.01491178304508,54.171130258017264,299.8986831515407,20.119680322133977,14.065736035557187,-21.8174007310805,-40.78133961908986,12.945680758129276,-21.878192093781614,-0.13774108048818834,0.11481599895730772,0.9837909743077449,0.048401330984804584,0.13462781564372522,0.9897134243880389,52.205153695269914,48.3401702719932,3.4150945288231025,3.455997245530283
327751.942592,1761550.0,1191093.75,1711217704960.0,-544.0,0.3335376977920532,256.0,0.1569589227437973,-15584.0,9.554874420166016,2660.0,3874.05126953125,2545.0,1864.4688720703125,18030.0,203.29786682128906,4.918890476226807,0.9517297148704529,0.4437380011976303,0.25261594237363394,-24.964442376916992,54.084757613449966,299.550135175503,20.119680322133977,14.065736035557187,-21.8174007310805,-40.78133961908986,12.945680758129276,-21.878192093781614,-0.13774108048818834,0.11481599895730772,0.9837909743077449,0.048612230569497115,0.13437105297477767,0.9897379810644368,52.205153695269914,48.379725401745645,3.4150945288231025,3.458870163067498
327752.0434561,1761806.0,1191101.5,1711217704960.0,-576.0,0.35315757989883423,176.0,0.10790925472974777,-15600.0,9.56468391418457,2672.0,3891.5283203125,2564.0,1878.3883056640625,18030.0,203.29786682128906,4.918890476226807,1.0,0.4431555257894562,0.25133309782285695,-25.07440107794327,54.059612146202284,297.3781245829065,20.119680322133977,14.065736035557187,-21.8174007310805,-40.78133961908986,12.945680758129276,-21.878192093781614,-0.13899527141500276,0.11631156228415501,0.9834388313480859,0.048612230569497115,0.13437105297477767,0.9897379810644368,52.61131779079588,48.379725401745645,3.441447275977895,3.458870163067498
327752.1445765,1762062.0,1191109.375,1711217704960.0,-592.0,0.36296749114990234,240.0,0.1471489816904068,-15616.0,9.574494361877441,2668.0,3885.70263671875,2559.0,1874.7252197265625,18030.0,203.29786682128906,4.918890476226807,1.0,0.44297569590942754,0.25163574428210467,-25.29089050754721,54.25263595830132,298.90675280225764,20.119680322133977,14.065736035557187,-21.8174007310805,-40.78133961908986,12.945680758129276,-21.878192093781614,-0.13899527141500276,0.11631156228415501,0.9834388313480859,0.0477135222512164,0.13436945057303534,0.9897819308044995,52.61131779079588,48.48117638709473,3.441447275977895,3.466086418600314
327752.2455342,1762318.0,1191117.25,1711217704960.0,-544.0,0.3335376977920532,240.0,0.1471489816904068,-15616.0,9.574494361877441,2655.0,3866.769287109375,2546.0,1865.201416015625,18030.0,203.29786682128906,4.918890476226807,0.9920580089092255,0.4431357826300409,0.25173570950622104,-25.261989839972664,54.331745076694006,299.50574547499673,20.119680322133977,14.065736035557187,-21.8174007310805,-40.78133961908986,12.945680758129276,-21.878192093781614,-0.13865416651547607,0.11633573169084925,0.9834841227187419,0.0477135222512164,0.13436945057303534,0.9897819308044995,52.55691562084116,48.48117638709473,3.437845195601751,3.466086418600314
327752.3475368,1762574.0,1191125.0,1711217704960.0,-480.0,0.2942979633808136,256.0,0.1569589227437973,-15632.0,9.584303855895996,2661.0,3875.5078125,2541.0,1861.5384521484375,18030.0,203.29786682128906,4.918890476226807,0.9920580089092255,0.4429894818308259,0.25174644190303597,-25.438641275526585,54.55342414528222,300.73906567822485,20.119680322133977,14.065736035557187,-21.8174007310805,-40.78133961908986,12.945680758129276,-21.878192093781614,-0.13865416651547607,0.11633573169084925,0.9834841227187419,0.04698493084846757,0.13476462303447923,0.9897630588436503,52.55691562084116,48.473315185321226,3.437845195601751,3.465346924455978
327752.4486199,1762830.0,1191132.75,1711217704960.0,-496.0,0.3041079044342041,256.0,0.1569589227437973,-15696.0,9.623543739318848,2669.0,3887.158935546875,2560.0,1875.4578857421875,18029.0,203.50909423828125,4.913785457611084,1.0,0.44252242676966985,0.2513978557502812,-25.522232057653824,54.33754401808406,298.9840787037656,20.119680322133977,14.065736035557187,-21.8174007310805,-40.78133961908986,12.945680758129276,-21.878192093781614,-0.13965003686146613,0.11636341227017453,0.9833399328255884,0.04698493084846757,0.13476462303447923,0.9897630588436503,52.7600519678538,48.473315185321226,3.451230950448331,3.465346924455978
327752.5494402,1763086.0,1191140.625,1711217704960.0,-528.0,0.3237277865409851,240.0,0.1471489816904068,-15616.0,9.574494361877441,2663.0,3878.42041015625,2556.0,1872.5274658203125,18030.0,203.29786682128906,4.918890476226807,1.0,0.44259628561288,0.2515081758324923,-25.4337695198628,54.19578917090185,298.3793631233126,20.119680322133977,14.065736035557187,-21.8174007310805,-40.78133961908986,12.945680758129276,-21.878192093781614,-0.13965003686146613,0.11636341227017453,0.9833399328255884,0.0473516049074305,0.13436998562887742,0.9897992384694917,52.7600519678538,48.60506305189352,3.451230950448331,3.474986224400327
327752.6496459,1763342.0,1191148.5,1711217704960.0,-560.0,0.3433476388454437,192.0,0.11771918833255768,-15616.0,9.574494361877441,2655.0,3866.769287109375,2541.0,1861.5384521484375,18029.0,203.50909423828125,4.913785457611084,0.9342864453792572,0.44347450416521383,0.2535464168324596,-25.270135205023337,54.205332273183714,301.68663940547685,20.119680322133977,14.065736035557187,-21.8174007310805,-40.78133961908986,12.945680758129276,-21.878192093781614,-0.13775754914217067,0.11392754706833083,0.9838919512189007,0.0473516049074305,0.13436998562887742,0.9897992384694917,52.44371264067984,48.60506305189352,3.4309260009701763,3.474986224400327
327752.7506185,1763598.0,1191156.25,1711217704960.0,-576.0,0.35315757989883423,288.0,0.17657878994941711,-15648.0,9.594114303588867,2671.0,3890.07177734375,2564.0,1878.3883056640625,18029.0,203.50909423828125,4.913785457611084,0.9312239587306976,0.4433031224443188,0.2540448427241999,-25.48133204638122,54.335990051802156,303.2069964746952,20.119680322133977,14.065736035557187,-21.8174007310805,-40.78133961908986,12.945680758129276,-21.878192093781614,-0.13775754914217067,0.11392754706833083,0.9838919512189007,0.04649201496104169,0.13401324521355354,0.9898883485788658,52.44371264067984,48.64198960766738,3.4309260009701763,3.4775479466410886
327752.851611,1763854.0,1191164.0,1711217704960.0,-544.0,0.3335376977920532,208.0,0.12752912938594818,-15728.0,9.643163681030273,2668.0,3885.70263671875,2563.0,1877.6556396484375,18029.0,203.50909423828125,4.913785457611084,0.9969375133514404,0.44256990372734784,0.25210025211030995,-25.617955909527712,54.396253439330984,300.4140897773176,20.119680322133977,14.065736035557187,-21.8174007310805,-40.78133961908986,12.945680758129276,-21.878192093781614,-0.1393414973887484,0.11638104614034998,0.983381614229562,0.04649201496104169,0.13401324521355354,0.9898883485788658,52.82740991664499,48.64198960766738,3.455559832734706,3.4775479466410886
327752.9526304,1764110.0,1191171.875,1711217704960.0,-512.0,0.3139178454875946,256.0,0.1569589227437973,-15632.0,9.584303855895996,2671.0,3890.07177734375,2575.0,1886.4468994140625,18029.0,203.50909423828125,4.913785457611084,1.0,0.4424479189881677,0.25197065100622595,-25.76613616570834,54.61886672432682,301.4334263002439,20.119680322133977,14.065736035557187,-21.8174007310805,-40.78133961908986,12.945680758129276,-21.878192093781614,-0.1393414973887484,0.11638104614034998,0.983381614229562,0.04588534273472528,0.1345764653227128,0.9898402448392171,52.82740991664499,48.43304203665062,3.455559832734706,3.4623404970423985
327753.0537468,1764366.0,1191179.75,1711217704960.0,-512.0,0.3139178454875946,208.0,0.12752912938594818,-15680.0,9.613734245300293,2655.0,3866.769287109375,2548.0,1866.6666259765625,18029.0,203.50909423828125,4.913785457611084,0.9997448921203613,0.4424347988802615,0.25242799781858993,-25.766715323668436,54.4790218822726,301.38505986330273,20.119680322133977,14.065736035557187,-21.8174007310805,-40.78133961908986,12.945680758129276,-21.878192093781614,-0.13936289772923718,0.11557654652699109,0.9834734590365948,0.04588534273472528,0.1345764653227128,0.9898402448392171,52.785923472890836,48.43304203665062,3.4530446483420767,3.4623404970423985
327753.1539641,1764622.0,1191187.5,1711217704960.0,-576.0,0.35315757989883423,256.0,0.1569589227437973,-15632.0,9.584303855895996,2665.0,3881.333251953125,2556.0,1872.5274658203125,18029.0,203.50909423828125,4.913785457611084,0.9997448921203613,0.4424645402765283,0.2529552042721014,-25.73328875256686,54.29275979536948,301.19157893091375,20.119680322133977,14.065736035557187,-21.8174007310805,-40.78133961908986,12.945680758129276,-21.878192093781614,-0.13936289772923718,0.11557654652699109,0.9834734590365948,0.04602705092815689,0.13360428118119544,0.9899653562791542,52.785923472890836,48.769645158053606,3.4530446483420767,3.486785620944086
327753.2546496,1764878.0,1191195.25,1711217704960.0,-528.0,0.3237277865409851,304.0,0.18638871610164642,-15632.0,9.584303855895996,2670.0,3888.615478515625,2563.0,1877.6556396484375,18028.0,203.7207489013672,4.908679962158203,1.0,0.44223568794671325,0.25237260007561924,-25.775149491627367,54.30476897141617,300.325728181151,20.119680322133977,14.065736035557187,-21.8174007310805,-40.78133961908986,12.945680758129276,-21.878192093781614,-0.13985653751749177,0.1163002212836028,0.9833180601631414,0.04602705092815689,0.13360428118119544,0.9899653562791542,52.841433510682364,48.769645158053606,3.4565193894337396,3.486785620944086
327753.3556271,1765134.0,1191203.125,1711217704960.0,-512.0,0.3139178454875946,240.0,0.1471489816904068,-15760.0,9.6627836227417,2668.0,3885.70263671875,2565.0,1879.120849609375,18029.0,203.50909423828125,4.913785457611084,1.0,0.4419813923071688,0.2532358910307506,-26.092854479424375,54.46688048322981,302.58674787344023,20.119680322133977,14.065736035557187,-21.8174007310805,-40.78133961908986,12.945680758129276,-21.878192093781614,-0.13985653751749177,0.1163002212836028,0.9833180601631414,0.044746864732404815,0.13286868429992166,0.9901230382275867,52.841433510682364,48.72620385422122,3.4565193894337396,3.483746063214883
327753.4561268,1765390.0,1191211.0,1711217704960.0,-512.0,0.3139178454875946,256.0,0.1569589227437973,-15680.0,9.613734245300293,2664.0,3879.876953125,2552.0,1869.5970458984375,18029.0,203.50909423828125,4.913785457611084,0.9995883405208588,0.4421833679339322,0.2534255843165031,-26.057619717162837,54.55001151796821,303.3606471383147,20.119680322133977,14.065736035557187,-21.8174007310805,-40.78133961908986,12.945680758129276,-21.878192093781614,-0.13942530455097005,0.1162205492755454,0.983388716824105,0.044746864732404815,0.13286868429992166,0.9901230382275867,52.666338801964045,48.72620385422122,3.4450295245666895,3.483746063214883
327753.5575882,1765646.0,1191218.75,1711217704960.0,-544.0,0.3335376977920532,224.0,0.1373390555381775,-15616.0,9.574494361877441,2662.0,3876.964111328125,2552.0,1869.5970458984375,18029.0,203.50909423828125,4.913785457611084,0.9995883405208588,0.4420242961052384,0.2535745032979605,-26.2567987775247,54.75857095656782,304.7542158382503,20.119680322133977,14.065736035557187,-21.8174007310805,-40.78133961908986,12.945680758129276,-21.878192093781614,-0.13942530455097005,0.1162205492755454,0.983388716824105,0.043950352327877716,0.13306728649640334,0.9901320436157691,52.666338801964045,48.64896743802729,3.4450295245666895,3.4779502562650384
327753.658614,1765902.0,1191226.5,1711217704960.0,-528.0,0.3237277865409851,224.0,0.1373390555381775,-15680.0,9.613734245300293,2670.0,3888.615478515625,2560.0,1875.4578857421875,18028.0,203.7207489013672,4.908679962158203,0.9712085127830505,0.44278447201327475,0.25500166420964365,-26.121078701084407,54.870149872144324,307.7291939055891,20.119680322133977,14.065736035557187,-21.8174007310805,-40.78133961908986,12.945680758129276,-21.878192093781614,-0.1377904946215657,0.11468955618869145,0.9837988032586669,0.043950352327877716,0.13306728649640334,0.9901320436157691,52.61880857169227,48.64896743802729,3.4421360405285797,3.4779502562650384
327753.7594236,1766158.0,1191234.375,1711217704960.0,-544.0,0.3335376977920532,240.0,0.1471489816904068,-15712.0,9.633354187011719,2668.0,3885.70263671875,2564.0,1878.3883056640625,18028.0,203.7207489013672,4.908679962158203,0.9712085127830505,0.44266850879933956,0.2552905903464239,-26.269262266150115,54.97569274918223,308.7920207807945,20.119680322133977,14.065736035557187,-21.8174007310805,-40.78133961908986,12.945680758129276,-21.878192093781614,-0.1377904946215657,0.11468955618869145,0.9837988032586669,0.04336758846157915,0.13290694785669518,0.9901792744157215,52.61880857169227,48.5633974036634,3.4421360405285797,3.4720090744501357
327753.8596173,1766414.0,1191242.25,1711217704960.0,-544.0,0.3335376977920532,304.0,0.18638871610164642,-15728.0,9.643163681030273,2653.0,3863.8564453125,2534.0,1856.4102783203125,18029.0,203.50909423828125,4.913785457611084,0.9477639198303223,0.44253540724799156,0.25558114377012864,-26.29097982306702,54.79763065066317,308.26462821715495,20.119680322133977,14.065736035557187,-21.8174007310805,-40.78133961908986,12.945680758129276,-21.878192093781614,-0.13806939738882226,0.11402519511417233,0.9838369257066246,0.04336758846157915,0.13290694785669518,0.9901792744157215,52.67432949514216,48.5633974036634,3.445913357073114,3.4720090744501357
327753.9605576,1766670.0,1191250.0,1711217704960.0,-560.0,0.3433476388454437,256.0,0.1569589227437973,-15648.0,9.594114303588867,2668.0,3885.70263671875,2552.0,1869.5970458984375,18029.0,203.50909423828125,4.913785457611084,0.9477639198303223,0.44255934821293036,0.25572616705979034,-26.261552094643577,54.720258103918376,308.06911899141403,20.119680322133977,14.065736035557187,-21.8174007310805,-40.78133961908986,12.945680758129276,-21.878192093781614,-0.13806939738882226,0.11402519511417233,0.9838369257066246,0.043485307248961914,0.13259490406078717,0.9902159458777534,52.67432949514216,48.657754526081,3.445913357073114,3.4790248337308407
327754.0616633,1766926.0,1191257.75,1711217704960.0,-528.0,0.3237277865409851,240.0,0.1471489816904068,-15728.0,9.643163681030273,2670.0,3888.615478515625,2561.0,1876.1904296875,18028.0,203.7207489013672,4.908679962158203,1.0,0.4413308795025742,0.2534553640096989,-26.477677180059366,54.53298771455495,303.2798490515576,20.119680322133977,14.065736035557187,-21.8174007310805,-40.78133961908986,12.945680758129276,-21.878192093781614,-0.14070922199522146,0.11643868825707408,0.9831800174548257,0.043485307248961914,0.13259490406078717,0.9902159458777534,53.0856272073366,48.657754526081,3.4724850157391103,3.4790248337308407
327754.1636243,1767182.0,1191265.625,1711217704960.0,-560.0,0.3433476388454437,272.0,0.1667688488960266,-15696.0,9.623543739318848,2670.0,3888.615478515625,2570.0,1882.783935546875,18028.0,203.7207489013672,4.908679962158203,1.0,0.44165329775916284,0.2541632068544011,-26.421155461077497,54.549241751106294,304.52329318810644,20.119680322133977,14.065736035557187,-21.8174007310805,-40.78133961908986,12.945680758129276,-21.878192093781614,-0.1400153969235797,0.1156127268249736,0.9833765230167061,0.043485307248961914,0.13259490406078717,0.9902159458777534,52.97725536233683,48.657754526081,3.4655122208286913,3.4790248337308407
327754.2647897,1767438.0,1191273.5,1711217704960.0,-592.0,0.36296749114990234,240.0,0.1471489816904068,-15680.0,9.613734245300293,2654.0,3865.312744140625,2540.0,1860.805908203125,18028.0,203.7207489013672,4.908679962158203,0.9968488216400146,0.441686524411341,0.254259486994727,-26.379993151426085,54.47144384030919,304.245805549558,20.119680322133977,14.065736035557187,-21.8174007310805,-40.78133961908986,12.945680758129276,-21.878192093781614,-0.1400153969235797,0.1156127268249736,0.9833765230167061,0.043650272978815505,0.13233864671168655,0.9902429682938395,52.97725536233683,48.744747247633086,3.4655122208286913,3.4853022578694963
327754.3655852,1767694.0,1191281.25,1711217704960.0,-528.0,0.3237277865409851,224.0,0.1373390555381775,-15648.0,9.594114303588867,2671.0,3890.07177734375,2564.0,1878.3883056640625,18027.0,203.93284606933594,4.9035749435424805,0.9968488216400146,0.4417114824426093,0.2543106300745691,-26.375605297294186,54.47373842146892,304.3422816474489,20.119680322133977,14.065736035557187,-21.8174007310805,-40.78133961908986,12.945680758129276,-21.878192093781614,-0.1399617258696333,0.11555507298491646,0.9833909397584687,0.043650272978815505,0.13233864671168655,0.9902429682938395,52.933033865944914,48.744747247633086,3.4625893262298044,3.4853022578694963
327754.466641,1767950.0,1191289.0,1711217704960.0,-528.0,0.3237277865409851,256.0,0.1569589227437973,-15648.0,9.594114303588867,2669.0,3887.158935546875,2569.0,1882.05126953125,18028.0,203.7207489013672,4.908679962158203,1.0,0.44173457879654243,0.254405200198615,-26.34719234008163,54.412293547333604,304.1527092534395,20.119680322133977,14.065736035557187,-21.8174007310805,-40.78133961908986,12.945680758129276,-21.878192093781614,-0.1399617258696333,0.11555507298491646,0.9833909397584687,0.04376458396206952,0.13211393045627798,0.9902679286789108,52.933033865944914,48.785390000378676,3.4625893262298044,3.487976202445431
327754.5669595,1768206.0,1191296.875,1711217704960.0,-512.0,0.3139178454875946,224.0,0.1373390555381775,-15664.0,9.603923797607422,2670.0,3888.615478515625,2571.0,1883.5164794921875,18028.0,203.7207489013672,4.908679962158203,0.9997348189353943,0.44180506947903686,0.2538205516373312,-26.255671184514156,54.459630381080046,303.477030739198,20.119680322133977,14.065736035557187,-21.8174007310805,-40.78133961908986,12.945680758129276,-21.878192093781614,-0.1399617258696333,0.11555507298491646,0.9833909397584687,0.04412427183358961,0.13290021667346227,0.9901467472265422,52.933033865944914,48.6820071023014,3.4625893262298044,3.4803252042186066
327754.6676129,1768462.0,1191304.75,1711217704960.0,-560.0,0.3433476388454437,224.0,0.1373390555381775,-15664.0,9.603923797607422,2655.0,3866.769287109375,2549.0,1867.3992919921875,18028.0,203.7207489013672,4.908679962158203,0.9407105147838593,0.4429618526259359,0.25608283264183807,-26.048662330480617,54.59881948517547,307.98886192178736,20.119680322133977,14.065736035557187,-21.8174007310805,-40.78133961908986,12.945680758129276,-21.878192093781614,-0.1374731475040163,0.11306844213790136,0.9840308232509014,0.04412427183358961,0.13290021667346227,0.9901467472265422,52.71726737458773,48.6820071023014,3.4488570420092066,3.4803252042186066
327754.7695091,1768718.0,1191312.5,1711217704960.0,-576.0,0.35315757989883423,256.0,0.1569589227437973,-15664.0,9.603923797607422,2670.0,3888.615478515625,2560.0,1875.4578857421875,18028.0,203.7207489013672,4.908679962158203,0.940975695848465,0.4433029229769108,0.2560050548266557,-25.623593205696444,54.0872697931301,304.9894037972268,20.119680322133977,14.065736035557187,-21.8174007310805,-40.78133961908986,12.945680758129276,-21.878192093781614,-0.1374731475040163,0.11306844213790136,0.9840308232509014,0.04582602475959146,0.13207166989977587,0.9901803115920946,52.71726737458773,48.83331259109296,3.4488570420092066,3.49139574743512
327754.8705221,1768974.0,1191320.25,1711217704960.0,-592.0,0.36296749114990234,272.0,0.1667688488960266,-15664.0,9.603923797607422,2669.0,3887.158935546875,2569.0,1882.05126953125,18027.0,203.93284606933594,4.9035749435424805,0.9562368988990784,0.44326111381642475,0.25576640825612074,-25.631899360364713,54.127844104778745,304.82690611897755,20.119680322133977,14.065736035557187,-21.8174007310805,-40.78133961908986,12.945680758129276,-21.878192093781614,-0.13756532996780568,0.11342884631117912,0.9839764615148898,0.04582602475959146,0.13207166989977587,0.9901803115920946,52.64360973063312,48.83331259109296,3.443919520249062,3.49139574743512
327754.9708421,1769230.0,1191328.125,1711217704960.0,-528.0,0.3237277865409851,256.0,0.1569589227437973,-15648.0,9.594114303588867,2671.0,3890.07177734375,2575.0,1886.4468994140625,18028.0,203.7207489013672,4.908679962158203,0.9562368988990784,0.443025504787255,0.2563019529284801,-25.927391358755248,54.3496948316361,306.9464321723383,20.119680322133977,14.065736035557187,-21.8174007310805,-40.78133961908986,12.945680758129276,-21.878192093781614,-0.13756532996780568,0.11342884631117912,0.9839764615148898,0.04464444722195511,0.13183189968872722,0.9902662387240653,52.64360973063312,48.47241903512055,3.443919520249062,3.465401465598424
327755.0716251,1769486.0,1191336.0,1711217704960.0,-576.0,0.35315757989883423,304.0,0.18638871610164642,-15632.0,9.584303855895996,2656.0,3868.2255859375,2547.0,1865.93408203125,18027.0,203.93284606933594,4.9035749435424805,0.9382214248180389,0.4439844550529588,0.2574847831103504,-25.753108146127104,54.669128118231626,310.75911847223233,20.119680322133977,14.065736035557187,-21.8174007310805,-40.78133961908986,12.945680758129276,-21.878192093781614,-0.13550846430211047,0.11256065799543077,0.9843614957799393,0.04464444722195511,0.13183189968872722,0.9902662387240653,52.39076521240598,48.47241903512055,3.427397595246379,3.465401465598424
327755.172405,1769742.0,1191343.75,1711217704960.0,-560.0,0.3433476388454437,304.0,0.18638871610164642,-15696.0,9.623543739318848,2670.0,3888.615478515625,2558.0,1873.99267578125,18028.0,203.7207489013672,4.908679962158203,0.988062858581543,0.44309070092532765,0.2556804890596742,-25.91833019889686,54.57579196238311,307.20168455594853,20.119680322133977,14.065736035557187,-21.8174007310805,-40.78133961908986,12.945680758129276,-21.878192093781614,-0.13743535790581887,0.11458070961489841,0.9838611606224964,0.04464444722195511,0.13183189968872722,0.9902662387240653,52.737514229588086,48.47241903512055,3.4497716499155398,3.465401465598424
327755.273605,1769998.0,1191351.5,1711217704960.0,-544.0,0.3335376977920532,256.0,0.1569589227437973,-15712.0,9.633354187011719,2649.0,3858.03076171875,2531.0,1854.21240234375,18028.0,203.7207489013672,4.908679962158203,0.988062858581543,0.44306650844770135,0.25585520950956053,-25.949617249336264,54.56640487628685,307.4351410949067,20.119680322133977,14.065736035557187,-21.8174007310805,-40.78133961908986,12.945680758129276,-21.878192093781614,-0.13743535790581887,0.11458070961489841,0.9838611606224964,0.04452153959478012,0.131605376803585,0.9903019021028369,52.737514229588086,48.6371908685185,3.4497716499155398,3.4776209146518946
327755.374757,1770254.0,1191359.375,1711217704960.0,-544.0,0.3335376977920532,224.0,0.1373390555381775,-15680.0,9.613734245300293,2671.0,3890.07177734375,2556.0,1872.5274658203125,18028.0,203.7207489013672,4.908679962158203,0.9918132126331329,0.4429743702906216,0.25593952349017124,-25.96539832777072,54.47813086325711,307.07274907241083,20.119680322133977,14.065736035557187,-21.8174007310805,-40.78133961908986,12.945680758129276,-21.878192093781614,-0.13763008032893406,0.11432252844247395,0.9838639745814309,0.04452153959478012,0.131605376803585,0.9903019021028369,52.97748031704752,48.6371908685185,3.465500283014392,3.4776209146518946
327755.4754943,1770510.0,1191367.25,1711217704960.0,-544.0,0.3335376977920532,224.0,0.1373390555381775,-15648.0,9.594114303588867,2655.0,3866.769287109375,2544.0,1863.7362060546875,18027.0,203.93284606933594,4.9035749435424805,0.9918132126331329,0.44321456574742735,0.2549732194748958,-25.661388090098043,54.364224139817665,304.86235762966896,20.119680322133977,14.065736035557187,-21.8174007310805,-40.78133961908986,12.945680758129276,-21.878192093781614,-0.13763008032893406,0.11432252844247395,0.9838639745814309,0.04573159873844505,0.1325580489158499,0.9901196819296386,52.97748031704752,48.601205276608134,3.465500283014392,3.474896242498115
327755.5761985,1770766.0,1191375.0,1711217704960.0,-512.0,0.3139178454875946,192.0,0.11771918833255768,-15696.0,9.623543739318848,2671.0,3890.07177734375,2562.0,1876.923095703125,18027.0,203.93284606933594,4.9035749435424805,0.9887652099132538,0.4431704090221638,0.25444222298793373,-25.712876124842005,54.576105399095766,305.1850867122309,20.119680322133977,14.065736035557187,-21.8174007310805,-40.78133961908986,12.945680758129276,-21.878192093781614,-0.13763008032893406,0.11432252844247395,0.9838639745814309,0.04551832377681496,0.1335773848467285,0.9899925072736954,52.97748031704752,48.37955169584163,3.465500283014392,3.4589541741246532
327755.6769256,1771022.0,1191382.75,1711217704960.0,-544.0,0.3335376977920532,256.0,0.1569589227437973,-15680.0,9.613734245300293,2643.0,3849.292236328125,2523.0,1848.3516845703125,18028.0,203.7207489013672,4.908679962158203,0.9852984547615051,0.443107340904101,0.25417032059240807,-25.725019800621865,54.611487479866,304.93972179550735,20.119680322133977,14.065736035557187,-21.8174007310805,-40.78133961908986,12.945680758129276,-21.878192093781614,-0.13776791364968072,0.11471424316186447,0.9837990874077972,0.04551832377681496,0.1335773848467285,0.9899925072736954,52.766977570381314,48.37955169584163,3.451663520487839,3.4589541741246532
327755.777656,1771278.0,1191390.625,1711217704960.0,-480.0,0.2942979633808136,240.0,0.1471489816904068,-15648.0,9.594114303588867,2670.0,3888.615478515625,2548.0,1866.6666259765625,18027.0,203.93284606933594,4.9035749435424805,0.9883464574813843,0.4433221213844252,0.25452471891354966,-25.463158107441856,54.183072206475615,303.12605258933957,20.119680322133977,14.065736035557187,-21.8174007310805,-40.78133961908986,12.945680758129276,-21.878192093781614,-0.13776791364968072,0.11471424316186447,0.9837990874077972,0.04658398551681509,0.13237495431166188,0.9901044408365991,52.766977570381314,48.6039065890047,3.451663520487839,3.4752231180571886
327755.8785994,1771534.0,1191398.5,1711217704960.0,-544.0,0.3335376977920532,240.0,0.1471489816904068,-15616.0,9.574494361877441,2653.0,3863.8564453125,2531.0,1854.21240234375,18027.0,203.93284606933594,4.9035749435424805,0.935915470123291,0.44386468529398604,0.255415540510033,-25.362453625678256,54.29560782180981,305.2220426522209,20.119680322133977,14.065736035557187,-21.8174007310805,-40.78133961908986,12.945680758129276,-21.878192093781614,-0.13660225615122798,0.11384259810768879,0.9840628468093314,0.04658398551681509,0.13237495431166188,0.9901044408365991,52.64147602911115,48.6039065890047,3.4435605848323947,3.4752231180571886
327755.9795161,1771790.0,1191406.25,1711217704960.0,-528.0,0.3237277865409851,304.0,0.18638871610164642,-15664.0,9.603923797607422,2669.0,3887.158935546875,2552.0,1869.5970458984375,18027.0,203.93284606933594,4.9035749435424805,0.9333004951477051,0.44378455723036564,0.25472456046926106,-25.456904016813034,54.606872824929056,305.8398749078341,20.119680322133977,14.065736035557187,-21.8174007310805,-40.78133961908986,12.945680758129276,-21.878192093781614,-0.13660225615122798,0.11384259810768879,0.9840628468093314,0.04619408526289226,0.13376484501269653,0.9899358932402914,52.64147602911115,48.45481739327334,3.4435605848323947,3.4639761406295113
327756.080519,1772046.0,1191414.0,1711217704960.0,-512.0,0.3139178454875946,288.0,0.17657878994941711,-15648.0,9.594114303588867,2669.0,3887.158935546875,2563.0,1877.6556396484375,18026.0,204.1453857421875,4.898469924926758,0.9739167094230652,0.44325828490171365,0.2536606024882556,-25.554971875619497,54.553166203701736,303.79780026700803,20.119680322133977,14.065736035557187,-21.8174007310805,-40.78133961908986,12.945680758129276,-21.878192093781614,-0.1377359068090501,0.1150326336497216,0.9837663915641242,0.04619408526289226,0.13376484501269653,0.9899358932402914,52.86862440037611,48.45481739327334,3.4581680125795944,3.4639761406295113
327756.1816007,1772302.0,1191421.875,1711217704960.0,-512.0,0.3139178454875946,272.0,0.1667688488960266,-15680.0,9.613734245300293,2671.0,3890.07177734375,2575.0,1886.4468994140625,18027.0,203.93284606933594,4.9035749435424805,0.9765316843986511,0.44310428781556777,0.25392224668441876,-25.746192315499947,54.723094151486876,305.16089927271946,20.119680322133977,14.065736035557187,-21.8174007310805,-40.78133961908986,12.945680758129276,-21.878192093781614,-0.1377359068090501,0.1150326336497216,0.9837663915641242,0.04542331802722579,0.1337580574785959,0.9899724765057613,52.86862440037611,48.448313304569865,3.4581680125795944,3.4635690656492564
327756.2826068,1772558.0,1191429.75,1711217704960.0,-496.0,0.3041079044342041,224.0,0.1373390555381775,-15616.0,9.574494361877441,2656.0,3868.2255859375,2542.0,1862.2711181640625,18027.0,203.93284606933594,4.9035749435424805,0.993313193321228,0.4435795290328447,0.25431557688295037,-25.66050684277571,54.93809726293935,307.01859137227393,20.119680322133977,14.065736035557187,-21.8174007310805,-40.78133961908986,12.945680758129276,-21.878192093781614,-0.13671992985125236,0.1149366793250325,0.9839193160657042,0.04542331802722579,0.1337580574785959,0.9899724765057613,52.55371777672229,48.448313304569865,3.437508015312217,3.4635690656492564
327756.3835902,1772814.0,1191437.5,1711217704960.0,-560.0,0.3433476388454437,272.0,0.1667688488960266,-15664.0,9.603923797607422,2669.0,3887.158935546875,2561.0,1876.1904296875,18027.0,203.93284606933594,4.9035749435424805,1.0,0.4432013712946955,0.2537367769627962,-25.72976759416214,54.84392769039916,305.5380346593252,20.119680322133977,14.065736035557187,-21.8174007310805,-40.78133961908986,12.945680758129276,-21.878192093781614,-0.13753214136426603,0.11547157363375163,0.9837434755942753,0.04542331802722579,0.1337580574785959,0.9899724765057613,52.847918170509054,48.448313304569865,3.4567083015902345,3.4635690656492564
327756.4854059,1773070.0,1191445.25,1711217704960.0,-576.0,0.35315757989883423,224.0,0.1373390555381775,-15664.0,9.603923797607422,2670.0,3888.615478515625,2565.0,1879.120849609375,18027.0,203.93284606933594,4.9035749435424805,0.9980521202087402,0.4431959351782434,0.2539304420766162,-25.737614480879387,54.800193909195684,305.6076960598265,20.119680322133977,14.065736035557187,-21.8174007310805,-40.78133961908986,12.945680758129276,-21.878192093781614,-0.13753214136426603,0.11547157363375163,0.9837434755942753,0.04539374952200782,0.13344690472985204,0.9900158236727101,52.847918170509054,48.50951302003125,3.4567083015902345,3.468249290480889
327756.587575,1773326.0,1191453.125,1711217704960.0,-528.0,0.3237277865409851,272.0,0.1667688488960266,-15632.0,9.584303855895996,2665.0,3881.333251953125,2564.0,1878.3883056640625,18027.0,203.93284606933594,4.9035749435424805,0.9446309208869934,0.4436415101135994,0.2544944065206677,-25.65640789403251,54.945463895213344,307.3541372984848,20.119680322133977,14.065736035557187,-21.8174007310805,-40.78133961908986,12.945680758129276,-21.878192093781614,-0.1365767120599811,0.11504485425116308,0.9839265639432719,0.04539374952200782,0.13344690472985204,0.9900158236727101,52.3676504822263,48.50951302003125,3.425328441249864,3.468249290480889
327756.6886395,1773582.0,1191461.0,1711217704960.0,-480.0,0.2942979633808136,208.0,0.12752912938594818,-15616.0,9.574494361877441,2654.0,3865.312744140625,2535.0,1857.142822265625,18026.0,204.1453857421875,4.898469924926758,0.9465788006782532,0.4437063224733751,0.25397366803236865,-25.573024182600562,54.98419227237643,306.72396411835007,20.119680322133977,14.065736035557187,-21.8174007310805,-40.78133961908986,12.945680758129276,-21.878192093781614,-0.1365767120599811,0.11504485425116308,0.9839265639432719,0.045723298408136985,0.1341423487562098,0.9899066674453948,52.3676504822263,48.497668234699,3.425328441249864,3.467046654604961
327756.7895745,1773838.0,1191468.75,1711217704960.0,-496.0,0.3041079044342041,240.0,0.1471489816904068,-15632.0,9.584303855895996,2669.0,3887.158935546875,2558.0,1873.99267578125,18027.0,203.93284606933594,4.9035749435424805,0.9627284407615662,0.44384304371567945,0.25437865592410824,-25.546968924197962,54.96141359450816,307.262065814634,20.119680322133977,14.065736035557187,-21.8174007310805,-40.78133961908986,12.945680758129276,-21.878192093781614,-0.13628017917112029,0.11451373177081359,0.9840296326844072,0.045723298408136985,0.1341423487562098,0.9899066674453948,52.22740162963585,48.497668234699,3.4162868524968806,3.467046654604961
327756.8904909,1774094.0,1191476.5,1711217704960.0,-448.0,0.274678111076355,256.0,0.1569589227437973,-15728.0,9.643163681030273,2649.0,3858.03076171875,2524.0,1849.084228515625,18027.0,203.93284606933594,4.9035749435424805,0.9627284407615662,0.4433808952552306,0.2554126936184229,-26.133371169704255,55.41774860765325,311.50636353775326,20.119680322133977,14.065736035557187,-21.8174007310805,-40.78133961908986,12.945680758129276,-21.878192093781614,-0.13628017917112029,0.11451373177081359,0.9840296326844072,0.043406290538463045,0.1336994273445704,0.9900708848710905,52.22740162963585,48.437200711202586,3.4162868524968806,3.463036365614478
327756.9914677,1774350.0,1191484.375,1711217704960.0,-544.0,0.3335376977920532,256.0,0.1569589227437973,-15648.0,9.594114303588867,2669.0,3887.158935546875,2553.0,1870.3297119140625,18027.0,203.93284606933594,4.9035749435424805,0.9627284407615662,0.4437489164507875,0.2546732026217067,-25.665597981487203,55.030514200487374,308.1269699308475,20.119680322133977,14.065736035557187,-21.8174007310805,-40.78133961908986,12.945680758129276,-21.878192093781614,-0.13628017917112029,0.11451373177081359,0.9840296326844072,0.04525069121900923,0.1339106756667258,0.989959749629591,52.22740162963585,48.29766257316918,3.4162868524968806,3.4529512975780325
327757.0925771,1774606.0,1191492.25,1711217704960.0,-528.0,0.3237277865409851,256.0,0.1569589227437973,-15664.0,9.603923797607422,2653.0,3863.8564453125,2529.0,1852.7471923828125,18026.0,204.1453857421875,4.898469924926758,0.9800795018672943,0.44279301846041647,0.253478939791018,-25.838991463117864,54.71459928387685,304.3858316117269,20.119680322133977,14.065736035557187,-21.8174007310805,-40.78133961908986,12.945680758129276,-21.878192093781614,-0.13832928077833992,0.115402253996063,0.9836398374669335,0.04525069121900923,0.1339106756667258,0.989959749629591,52.4800226042945,48.29766257316918,3.432779257048174,3.4529512975780325
327757.1946482,1774862.0,1191500.0,1711217704960.0,-592.0,0.36296749114990234,224.0,0.1373390555381775,-15664.0,9.603923797607422,2655.0,3866.769287109375,2531.0,1854.21240234375,18026.0,204.1453857421875,4.898469924926758,1.0,0.4429976823150275,0.2534005097648985,-25.803465755487792,54.878434421856625,305.1786476689763,20.119680322133977,14.065736035557187,-21.8174007310805,-40.78133961908986,12.945680758129276,-21.878192093781614,-0.13789553108037877,0.11578844420099814,0.9836553556493111,0.04525069121900923,0.1339106756667258,0.989959749629591,52.23620597050291,48.29766257316918,3.416714206173268,3.4529512975780325
327757.2964738,1775118.0,1191507.75,1711217704960.0,-528.0,0.3237277865409851,288.0,0.17657878994941711,-15680.0,9.613734245300293,2669.0,3887.158935546875,2550.0,1868.1318359375,18026.0,204.1453857421875,4.898469924926758,1.0,0.4431408312383723,0.2532801676607098,-25.62607871339526,54.6867321232679,303.92471430010994,20.119680322133977,14.065736035557187,-21.8174007310805,-40.78133961908986,12.945680758129276,-21.878192093781614,-0.13789553108037877,0.11578844420099814,0.9836553556493111,0.045965789824250584,0.13370962347461132,0.989953980120344,52.23620597050291,48.33865338478673,3.416714206173268,3.455864132627683
327757.3975654,1775374.0,1191515.625,1711217704960.0,-480.0,0.2942979633808136,256.0,0.1569589227437973,-15728.0,9.643163681030273,2671.0,3890.07177734375,2570.0,1882.783935546875,18026.0,204.1453857421875,4.898469924926758,0.954816609621048,0.4439891878005591,0.2550079911200571,-25.467963827104874,54.771351619641976,307.2324493308344,20.119680322133977,14.065736035557187,-21.8174007310805,-40.78133961908986,12.945680758129276,-21.878192093781614,-0.13606748723902604,0.11384802454039142,0.9841363046980371,0.045965789824250584,0.13370962347461132,0.989953980120344,51.88704161733839,48.33865338478673,3.3941968750546336,3.455864132627683
327757.4983123,1775630.0,1191523.5,1711217704960.0,-544.0,0.3335376977920532,240.0,0.1471489816904068,-15680.0,9.613734245300293,2658.0,3871.138427734375,2548.0,1866.6666259765625,18026.0,204.1453857421875,4.898469924926758,0.954816609621048,0.4438871657321862,0.2551015377883945,-25.594974070082927,54.90702375252704,308.14318113704996,20.119680322133977,14.065736035557187,-21.8174007310805,-40.78133961908986,12.945680758129276,-21.878192093781614,-0.13606748723902604,0.11384802454039142,0.9841363046980371,0.045456648165864685,0.13383882285958004,0.9899600308260361,51.88704161733839,48.008992907431946,3.3941968750546336,3.4321808839379635
327757.5990068,1775886.0,1191531.25,1711217704960.0,-528.0,0.3237277865409851,240.0,0.1471489816904068,-15648.0,9.594114303588867,2668.0,3885.70263671875,2556.0,1872.5274658203125,18026.0,204.1453857421875,4.898469924926758,0.9898979067802429,0.44346998301980955,0.25480683809693405,-25.670654236156363,54.702921896586965,306.49987284629924,20.119680322133977,14.065736035557187,-21.8174007310805,-40.78133961908986,12.945680758129276,-21.878192093781614,-0.13695917243693048,0.11384526088437694,0.9840129275876203,0.045456648165864685,0.13383882285958004,0.9899600308260361,52.20077801109741,48.008992907431946,3.414758045070415,3.4321808839379635
327757.6995635,1776142.0,1191539.0,1711217704960.0,-576.0,0.35315757989883423,208.0,0.12752912938594818,-15664.0,9.603923797607422,2669.0,3887.158935546875,2564.0,1878.3883056640625,18025.0,204.35836791992188,4.893364429473877,0.9898979067802429,0.4435330002658581,0.2552960101877719,-25.595488957041205,54.47194550130423,306.00515370658553,20.119680322133977,14.065736035557187,-21.8174007310805,-40.78133961908986,12.945680758129276,-21.878192093781614,-0.13695917243693048,0.11384526088437694,0.9840129275876203,0.04576424916526869,0.1328369488566583,0.9900807939339054,52.20077801109741,48.16523124081865,3.414758045070415,3.443593651906428
327757.8005519,1776398.0,1191546.875,1711217704960.0,-592.0,0.36296749114990234,176.0,0.10790925472974777,-15680.0,9.613734245300293,2669.0,3887.158935546875,2568.0,1881.3187255859375,18026.0,204.1453857421875,4.898469924926758,1.0,0.44329555046697944,0.2544842011292592,-25.640760220281912,54.54411484154049,305.0791336394318,20.119680322133977,14.065736035557187,-21.8174007310805,-40.78133961908986,12.945680758129276,-21.878192093781614,-0.13747528757909197,0.11495465523927799,0.9838119599516285,0.04576424916526869,0.1328369488566583,0.9900807939339054,52.27487641439043,48.16523124081865,3.4194295972720363,3.443593651906428
327757.9016393,1776654.0,1191554.75,1711217704960.0,-560.0,0.3433476388454437,176.0,0.10790925472974777,-15632.0,9.584303855895996,2655.0,3866.769287109375,2548.0,1866.6666259765625,18026.0,204.1453857421875,4.898469924926758,1.0,0.44309575729628303,0.2545536991180045,-25.889093234407746,54.83881043875658,306.83300184179996,20.119680322133977,14.065736035557187,-21.8174007310805,-40.78133961908986,12.945680758129276,-21.878192093781614,-0.13747528757909197,0.11495465523927799,0.9838119599516285,0.0447673511128222,0.13328278384655623,0.990066454236509,52.27487641439043,48.07692302350849,3.4194295972720363,3.4372406694508104
327758.0025064,1776910.0,1191562.5,1711217704960.0,-576.0,0.35315757989883423,272.0,0.1667688488960266,-15664.0,9.603923797607422,2669.0,3887.158935546875,2559.0,1874.7252197265625,18025.0,204.35836791992188,4.893364429473877,1.0,0.44258058008187007,0.25444449595597307,-25.97926571221199,54.514942506347055,304.8236889882686,20.119680322133977,14.065736035557187,-21.8174007310805,-40.78133961908986,12.945680758129276,-21.878192093781614,-0.13857155935187665,0.11451201895333826,0.9837097745036489,0.0447673511128222,0.13328278384655623,0.990066454236509,52.42164894013885,48.07692302350849,3.4292290252930684,3.4372406694508104
327758.1034443,1777166.0,1191570.25,1711217704960.0,-544.0,0.3335376977920532,240.0,0.1471489816904068,-15712.0,9.633354187011719,2671.0,3890.07177734375,2575.0,1886.4468994140625,18025.0,204.35836791992188,4.893364429473877,1.0,0.44271616807651376,0.2548479360548329,-25.813589982783768,54.19587686618975,303.69613636502237,20.119680322133977,14.065736035557187,-21.8174007310805,-40.78133961908986,12.945680758129276,-21.878192093781614,-0.13857155935187665,0.11451201895333826,0.9837097745036489,0.04543873480983988,0.13222047410585325,0.9901783009166099,52.42164894013885,48.052603754528214,3.4292290252930684,3.4358815238312834
327758.2045418,1777422.0,1191578.125,1711217704960.0,-576.0,0.35315757989883423,256.0,0.1569589227437973,-15744.0,9.652973175048828,2670.0,3888.615478515625,2572.0,1884.2490234375,18026.0,204.1453857421875,4.898469924926758,1.0,0.465382555572902,0.2660322102048557,-22.35322715943211,78.58550744827593,469.2494812714829,nan,nan,nan,-91.28675013448513,50.15649166884846,-25.159216540419454,nan,nan,nan,0.13786704595010602,0.05685803155885492,0.9888173956238047,nan,48.052603754528214,nan,3.4358815238312834
327758.3055169,1777678.0,1191586.0,1711217704960.0,-592.0,0.36296749114990234,224.0,0.1373390555381775,-15760.0,9.6627836227417,2662.0,3876.964111328125,2561.0,1876.1904296875,18025.0,204.35836791992188,4.893364429473877,0.9750782549381256,0.44299468026920064,0.2561239905845091,-25.78802660328028,54.0753506493668,305.10457111745995,20.119680322133977,14.065736035557187,-21.8174007310805,-40.78133961908986,12.945680758129276,-21.878192093781614,-0.1379093359238077,0.11284751504146258,0.9839951490805334,0.0453104199213152,0.13213194084126736,0.990195998808354,52.03470420689938,47.90591680948981,3.404175294544816,3.4253344221246547
327758.4062547,1777934.0,1191593.75,1711217704960.0,-544.0,0.3335376977920532,224.0,0.1373390555381775,-15696.0,9.623543739318848,2669.0,3887.158935546875,2564.0,1878.3883056640625,18025.0,204.35836791992188,4.893364429473877,0.9477619528770447,0.44310846687554173,0.2559007463213889,-25.76886431743788,54.21768176862116,305.54648978658815,20.119680322133977,14.065736035557187,-21.8174007310805,-40.78133961908986,12.945680758129276,-21.878192093781614,-0.1376706710133553,0.11337170407068053,0.9839683140522578,0.0453104199213152,0.13213194084126736,0.990195998808354,52.02924034356862,47.90591680948981,3.403647084117753,3.4253344221246547
327758.5092128,1778190.0,1191601.5,1711217704960.0,-528.0,0.3237277865409851,256.0,0.1569589227437973,-15632.0,9.584303855895996,2670.0,3888.615478515625,2573.0,1884.981689453125,18025.0,204.35836791992188,4.893364429473877,0.9251443147659302,0.44331271662815797,0.25545616934894766,-25.514657418198077,54.02152186667149,303.7259845798144,20.119680322133977,14.065736035557187,-21.8174007310805,-40.78133961908986,12.945680758129276,-21.878192093781614,-0.1376706710133553,0.11337170407068053,0.9839683140522578,0.04633398381532012,0.13230639533180497,0.9901253353480587,52.02924034356862,47.89936269521816,3.403647084117753,3.4248784147402223
327758.6094407,1778446.0,1191609.375,1711217704960.0,-560.0,0.3433476388454437,208.0,0.12752912938594818,-15664.0,9.603923797607422,2671.0,3890.07177734375,2576.0,1887.179443359375,18026.0,204.1453857421875,4.898469924926758,0.9773823618888855,0.44293542155401255,0.25496022408649044,-25.583347220285766,53.90934716009761,302.2797947382633,20.119680322133977,14.065736035557187,-21.8174007310805,-40.78133961908986,12.945680758129276,-21.878192093781614,-0.13847892470318532,0.11376505689371808,0.9838094832044559,0.04633398381532012,0.13230639533180497,0.9901253353480587,52.12217362295418,47.89936269521816,3.4096963147639716,3.4248784147402223
327758.7096517,1778702.0,1191617.25,1711217704960.0,-640.0,0.39239731431007385,256.0,0.1569589227437973,-15600.0,9.56468391418457,2654.0,3865.312744140625,2547.0,1865.93408203125,18025.0,204.35836791992188,4.893364429473877,1.0,0.4428832649396024,0.25510605454486845,-25.647995843540308,53.95024612981989,302.7423626946015,20.119680322133977,14.065736035557187,-21.8174007310805,-40.78133961908986,12.945680758129276,-21.878192093781614,-0.13847892470318532,0.11376505689371808,0.9838094832044559,0.046072173344605845,0.13220763097734758,0.9901507446619741,52.12217362295418,47.842374715620984,3.4096963147639716,3.420898244826862
327758.8104903,1778958.0,1191625.0,1711217704960.0,-528.0,0.3237277865409851,208.0,0.12752912938594818,-15632.0,9.584303855895996,2670.0,3888.615478515625,2559.0,1874.7252197265625,18025.0,204.35836791992188,4.893364429473877,1.0,0.4433637282654628,0.2561238341842542,-25.55920901927619,53.98207069901997,304.59233477390865,20.119680322133977,14.065736035557187,-21.8174007310805,-40.78133961908986,12.945680758129276,-21.878192093781614,-0.1374440992051818,0.11259794871377181,0.9840888280735266,0.046072173344605845,0.13220763097734758,0.9901507446619741,51.96278645932301,47.842374715620984,3.399397208777211,3.420898244826862
