timestamp,confidence_001,norm_pos_x_001,norm_pos_y_001,gaze_point_3d_x_001,gaze_point_3d_y_001,gaze_point_3d_z_001,eye_center0_3d_x_001,eye_center0_3d_y_001,eye_center0_3d_z_001,eye_center1_3d_x_001,eye_center1_3d_y_001,eye_center1_3d_z_001,gaze_normal0_x_001,gaze_normal0_y_001,gaze_normal0_z_001,gaze_normal1_x_001,gaze_normal1_y_001,gaze_normal1_z_001,diameter0_2d_001,diameter1_2d_001,diameter0_3d_001,diameter1_3d_001,Timestamp RAW (no units)_001,Timestamp CAL (mSecs)_001,System Timestamp CAL (mSecs)_001,Wide Range Accelerometer X RAW (no units)_001,Wide Range Accelerometer X CAL (m/(sec ^2))_001,Wide Range Accelerometer Y RAW (no units)_001,Wide Range Accelerometer Y CAL (m/(sec ^2))_001,Wide Range Accelerometer Z RAW (no units)_001,Wide Range Accelerometer Z CAL (m/(sec ^2))_001,VSenseBatt RAW (no units)_001,VSenseBatt CAL (m Volts)_001,Internal ADC A13 RAW (no units)_001,Internal ADC A13 CAL (m Volts)_001,GSR RAW (no units)_001,GSR CAL (kOhms)_001,GSR Conductance CAL (u Siemens)_001
68475.9958579,0.9720453917980194,0.4551025914705945,0.3598776611305947,-12.40305209331326,15.62216518245418,194.23143918888667,21.95009470178155,11.251674379594292,-25.465553470318525,-39.86246050917246,13.699676940135337,-20.87317818750315,-0.1541496114347817,0.027544558036499057,0.9876635027260446,0.1263150082049904,0.0009703592687904391,0.9919897061487394,50.11201313362051,55.85509765513808,3.29898667968717,4.334191204519891,2943445.0,1743671.875,1710958444544.0,-416.0,0.25505825877189636,112.0,0.06866952776908875,-15696.0,9.623543739318848,2780.0,4048.820556640625,2567.0,1880.5860595703125,52565.0,824.8489379882812,1.2123432159423828
68476.0963317,0.9848678708076477,0.4562453206110768,0.3609682868988523,-12.160487850513833,15.578714575371528,196.1509207534556,21.95009470178155,11.251674379594292,-25.465553470318525,-39.86246050917246,13.699676940135337,-20.87317818750315,-0.15179902506149742,0.026911090811279712,0.9880449631376731,0.1263150082049904,0.0009703592687904391,0.9919897061487394,50.08830239980319,55.85509765513808,3.296674738550559,4.334191204519891,2943701.0,1743679.75,1710958444544.0,-448.0,0.274678111076355,48.0,0.02942979708313942,-15776.0,9.672593116760254,2787.0,4059.015380859375,2588.0,1895.970703125,52564.0,825.151123046875,1.2118991613388062
68476.1973177,0.9622872769832611,0.45651684005229126,0.36077203874401165,-12.016004915912617,15.538463654800662,195.20678562078797,21.95009470178155,11.251674379594292,-25.465553470318525,-39.86246050917246,13.699676940135337,-20.87317818750315,-0.15179902506149742,0.026911090811279712,0.9880449631376731,0.12750789969866677,0.0007241325081260073,0.9918372906613995,50.08830239980319,56.079000962973524,3.296674738550559,4.3515969867477144,2943957.0,1743687.5,1710958444544.0,-432.0,0.2648681700229645,144.0,0.08828939497470856,-15808.0,9.69221305847168,2769.0,4032.800048828125,2562.0,1876.923095703125,52566.0,824.5469360351562,1.2127872705459595
68476.2983759,0.976766049861908,0.45695622751386117,0.3619587522766611,-11.922794239366484,15.386217938429407,195.98025018156082,21.95009470178155,11.251674379594292,-25.465553470318525,-39.86246050917246,13.699676940135337,-20.87317818750315,-0.1509041553668598,0.02544144273665972,0.9882209615690674,0.12750789969866677,0.0007241325081260073,0.9918372906613995,49.93831912608388,56.079000962973524,3.287352453286052,4.3515969867477144,2944213.0,1743695.25,1710958444544.0,-432.0,0.2648681700229645,144.0,0.08828939497470856,-15808.0,9.69221305847168,2774.0,4040.08203125,2557.0,1873.2601318359375,52566.0,824.5469360351562,1.2127872705459595
68476.399382,0.9871906042098999,0.45686956258463657,0.36296537390509875,-11.963081445060709,15.222700518143332,196.2014304638128,21.95009470178155,11.251674379594292,-25.465553470318525,-39.86246050917246,13.699676940135337,-20.87317818750315,-0.1509041553668598,0.02544144273665972,0.9882209615690674,0.12716942928238426,-0.0007779043083629406,0.9918807040772997,49.93831912608388,55.864430259995295,3.287352453286052,4.334640339628228,2944469.0,1743703.125,1710958444544.0,-400.0,0.24524831771850586,144.0,0.08828939497470856,-15712.0,9.633354187011719,2779.0,4047.364013671875,2570.0,1882.783935546875,52565.0,824.8489379882812,1.2123432159423828
68476.5003929,0.9685950875282288,0.45727131502158674,0.36454130756670433,-11.878159004209234,14.994775087688687,196.93582748505068,21.95009470178155,11.251674379594292,-25.465553470318525,-39.86246050917246,13.699676940135337,-20.87317818750315,-0.15009182892443224,0.023311552128879073,0.988397194667944,0.12716942928238426,-0.0007779043083629406,0.9918807040772997,50.194890731322005,55.864430259995295,3.304290948963372,4.334640339628228,2944725.0,1743711.0,1710958444544.0,-448.0,0.274678111076355,144.0,0.08828939497470856,-15696.0,9.623543739318848,2787.0,4059.015380859375,2589.0,1896.7032470703125,52564.0,825.151123046875,1.2118991613388062
68476.6011602,0.9563986659049988,0.45754581737340044,0.362871321271947,-11.740662080907066,15.229587922227779,196.08430784542895,21.95009470178155,11.251674379594292,-25.465553470318525,-39.91072224637096,13.779526885925147,-20.741507799546387,-0.15009182892443224,0.023311552128879073,0.988397194667944,0.12861030227047268,0.001067934213840421,0.9916946352917377,50.194890731322005,55.79998477827112,3.304290948963372,4.302391317053376,2944981.0,1743718.75,1710958444544.0,-480.0,0.2942979633808136,112.0,0.06866952776908875,-15728.0,9.643163681030273,2773.0,4038.625732421875,2570.0,1882.783935546875,52566.0,824.5469360351562,1.2127872705459595
68476.7019853,0.9636779129505157,0.45850918779627053,0.3644012361639908,-11.530246094389998,15.080896039491755,197.75526467754798,21.95009470178155,11.251674379594292,-25.465553470318525,-39.91072224637096,13.779526885925147,-20.741507799546387,-0.148111731865732,0.021800300534374793,0.9887303281382364,0.12861030227047268,0.001067934213840421,0.9916946352917377,50.1247880646063,55.79998477827112,3.299342877258601,4.302391317053376,2945237.0,1743726.5,1710958444544.0,-464.0,0.2844880521297455,96.0,0.05885959416627884,-15792.0,9.682403564453125,2773.0,4038.625732421875,2560.0,1875.4578857421875,52565.0,824.8489379882812,1.2123432159423828
68476.8023756,0.9880303740501404,0.4594813040184699,0.3610367963050052,-11.042108000574169,15.439544712323187,194.6081059852935,21.95009470178155,11.251674379594292,-25.465553470318525,-39.91072224637096,13.779526885925147,-20.741507799546387,-0.148111731865732,0.021800300534374793,0.9887303281382364,0.13274265050641118,0.004655266418700286,0.9911396053185967,50.1247880646063,55.96767391475277,3.299342877258601,4.314848804703256,2945493.0,1743734.375,1710958444544.0,-480.0,0.2942979633808136,176.0,0.10790925472974777,-15680.0,9.613734245300293,2781.0,4050.27685546875,2571.0,1883.5164794921875,52565.0,824.8489379882812,1.2123432159423828
68476.9034117,0.9784616529941559,0.45939710064255773,0.36202654974287996,-11.062553286129814,15.25564807914595,194.5126148257099,21.95009470178155,11.251674379594292,-25.465553470318525,-39.91072224637096,13.779526885925147,-20.741507799546387,-0.14830057396896643,0.02013852982272334,0.9887372650896974,0.13274265050641118,0.004655266418700286,0.9911396053185967,50.17185307153031,55.96767391475277,3.3020418172549544,4.314848804703256,2945749.0,1743742.25,1710958444544.0,-432.0,0.2648681700229645,112.0,0.06866952776908875,-15792.0,9.682403564453125,2771.0,4035.712890625,2560.0,1875.4578857421875,52565.0,824.8489379882812,1.2123432159423828
68477.0049035,0.938132256269455,0.4589150487100285,0.3626985126800074,-11.308385190844438,15.263542266348015,196.14508984532057,21.95009470178155,11.251674379594292,-25.465553470318525,-39.91072224637096,13.779526885925147,-20.741507799546387,-0.14830057396896643,0.02013852982272334,0.9887372650896974,0.13065214937838474,0.004544745284988629,0.9914178539612362,50.17185307153031,55.70220970871165,3.3020418172549544,4.294936716955291,2946005.0,1743750.0,1710958444544.0,-432.0,0.2648681700229645,144.0,0.08828939497470856,-15808.0,9.69221305847168,2767.0,4029.88720703125,2547.0,1865.93408203125,52566.0,824.5469360351562,1.2127872705459595
68477.1052195,0.9387249946594238,0.4585396157351001,0.3623329103919528,-11.391220949844563,15.280138112153612,195.51034570140666,21.95009470178155,11.251674379594292,-25.465553470318525,-39.91072224637096,13.779526885925147,-20.741507799546387,-0.1490755978922691,0.020358007139832317,0.988616213532004,0.13065214937838474,0.004544745284988629,0.9914178539612362,50.146312955127954,55.70220970871165,3.3003922518797886,4.294936716955291,2946261.0,1743757.75,1710958444544.0,-416.0,0.25505825877189636,96.0,0.05885959416627884,-15712.0,9.633354187011719,2772.0,4037.169189453125,2544.0,1863.7362060546875,52566.0,824.5469360351562,1.2127872705459595
68477.2060913,0.9402406215667725,0.4584347536340639,0.3621048410209279,-11.44739315701292,15.35160248396166,195.8990900657722,21.95009470178155,11.251674379594292,-25.465553470318525,-39.91072224637096,13.779526885925147,-20.741507799546387,-0.1490755978922691,0.020358007139832317,0.988616213532004,0.1301801591450608,0.005147350340777728,0.9914769946647456,50.146312955127954,55.75439356272059,3.3003922518797886,4.299161110946092,2946517.0,1743765.625,1710958444544.0,-384.0,0.23543837666511536,80.0,0.04904966428875923,-15760.0,9.6627836227417,2772.0,4037.169189453125,2542.0,1862.2711181640625,52565.0,824.8489379882812,1.2123432159423828
68477.3071844,0.953047126531601,0.4586722032785532,0.3625776374684,-11.39548516525092,15.29858719263522,196.31192712932597,21.95009470178155,11.251674379594292,-25.465553470318525,-39.91072224637096,13.779526885925147,-20.741507799546387,-0.14858879394329855,0.019833234349159467,0.9887001634113991,0.1301801591450608,0.005147350340777728,0.9914769946647456,50.138430135359364,55.75439356272059,3.2998560329480044,4.299161110946092,2946773.0,1743773.5,1710958444544.0,-400.0,0.24524831771850586,96.0,0.05885959416627884,-15776.0,9.672593116760254,2778.0,4045.90771484375,2557.0,1873.2601318359375,52565.0,824.8489379882812,1.2123432159423828
68477.4083646,0.9716293513774872,0.4595162706969619,0.3617166311755836,-10.964305011173845,15.226235013219728,193.43909375803918,21.95009470178155,11.251674379594292,-25.465553470318525,-39.91072224637096,13.779526885925147,-20.741507799546387,-0.14858879394329855,0.019833234349159467,0.9887001634113991,0.13385357627044076,0.004812198974693708,0.990989436301236,50.138430135359364,56.168096890652016,3.2998560329480044,4.3310838872205375,2947029.0,1743781.25,1710958444544.0,-464.0,0.2844880521297455,96.0,0.05885959416627884,-15776.0,9.672593116760254,2768.0,4031.343505859375,2539.0,1860.0732421875,52566.0,824.5469360351562,1.2127872705459595
68477.5088101,0.9561593234539032,0.4602674678188373,0.3626167603644236,-10.797496013604482,15.163580254088174,194.69528024318777,21.95009470178155,11.251674379594292,-25.465553470318525,-39.91072224637096,13.779526885925147,-20.741507799546387,-0.14704029045702757,0.019126508757956743,0.9889455645509742,0.13385357627044076,0.004812198974693708,0.990989436301236,49.996602820708986,56.168096890652016,3.2906572834866097,4.3310838872205375,2947285.0,1743789.0,1710958444544.0,-416.0,0.25505825877189636,48.0,0.02942979708313942,-15840.0,9.711833000183105,2774.0,4040.08203125,2548.0,1866.6666259765625,52565.0,824.8489379882812,1.2123432159423828
68477.6094691,0.9763908684253693,0.46004957002876135,0.3626212689005427,-10.908726553278953,15.222198507023297,195.4547604843715,21.95009470178155,11.251674379594292,-25.465553470318525,-39.91072224637096,13.779526885925147,-20.741507799546387,-0.14704029045702757,0.019126508757956743,0.9889455645509742,0.1328986066916608,0.005261337508098763,0.9911156737066775,49.996602820708986,55.73767052408467,3.2906572834866097,4.29780442600155,2947541.0,1743796.875,1710958444544.0,-368.0,0.22562845051288605,96.0,0.05885959416627884,-15760.0,9.6627836227417,2781.0,4050.27685546875,2564.0,1878.3883056640625,52565.0,824.8489379882812,1.2123432159423828
68477.7099647,0.9738037586212158,0.46025961507087426,0.3633489245358833,-10.862495574671803,15.120742268801148,195.8316375745419,21.95009470178155,11.251674379594292,-25.465553470318525,-39.91072224637096,13.779526885925147,-20.741507799546387,-0.14661331983648834,0.018168391384507248,0.9890270188427731,0.1328986066916608,0.005261337508098763,0.9911156737066775,50.05426265251799,55.73767052408467,3.2943927352601317,4.29780442600155,2947797.0,1743804.75,1710958444544.0,-416.0,0.25505825877189636,64.0,0.039239730685949326,-15776.0,9.672593116760254,2787.0,4059.015380859375,2588.0,1895.970703125,52565.0,824.8489379882812,1.2123432159423828
68477.8112556,0.9381601810455322,0.45961236643738407,0.36478092339718204,-11.19017065057607,15.029892895435115,198.0080177872445,21.95009470178155,11.251674379594292,-25.465553470318525,-39.91072224637096,13.779526885925147,-20.741507799546387,-0.14661331983648834,0.018168391384507248,0.9890270188427731,0.13011688313497885,0.00422037507528084,0.9914896798038102,50.05426265251799,55.62649744980537,3.2943927352601317,4.289260788331586,2948053.0,1743812.5,1710958444544.0,-432.0,0.2648681700229645,80.0,0.04904966428875923,-15728.0,9.643163681030273,2769.0,4032.800048828125,2560.0,1875.4578857421875,52567.0,824.2451782226562,1.2132312059402466
68477.9124189,0.9191087186336517,0.46030660554565256,0.3649490186541229,-11.03257282395189,15.088230193393908,199.19203652274314,21.95009470178155,11.251674379594292,-25.465553470318525,-39.91072224637096,13.779526885925147,-20.741507799546387,-0.1451678525110973,0.01857311383099895,0.989232699641463,0.13011688313497885,0.00422037507528084,0.9914896798038102,49.98433653999132,55.62649744980537,3.2892709252679584,4.289260788331586,2948309.0,1743820.25,1710958444544.0,-464.0,0.2844880521297455,112.0,0.06866952776908875,-15792.0,9.682403564453125,2773.0,4038.625732421875,2556.0,1872.5274658203125,52566.0,824.5469360351562,1.2127872705459595
68478.0133677,0.9547522962093353,0.4606231682697458,0.3641195256551978,-10.87213997602826,15.157312224328475,198.12226415628595,21.95009470178155,11.251674379594292,-25.465553470318525,-39.91072224637096,13.779526885925147,-20.741507799546387,-0.1451678525110973,0.01857311383099895,0.989232699641463,0.1314718188367987,0.0049474491323629735,0.9913075625651337,49.98433653999132,55.83103320960049,3.2892709252679584,4.305046830603639,2948565.0,1743828.125,1710958444544.0,-432.0,0.2648681700229645,112.0,0.06866952776908875,-15744.0,9.652973175048828,2780.0,4048.820556640625,2563.0,1877.6556396484375,52566.0,824.5469360351562,1.2127872705459595
68478.1136135,0.9407225549221039,0.45996783813482905,0.36341666711385057,-11.020086091015974,15.198484747922429,196.99205494987703,21.95009470178155,11.251674379594292,-25.465553470318525,-39.91072224637096,13.779526885925147,-20.741507799546387,-0.1465242020364826,0.019060158700798278,0.9890234418697427,0.1314718188367987,0.0049474491323629735,0.9913075625651337,50.05840226974949,55.83103320960049,3.29442164259654,4.305046830603639,2948821.0,1743836.0,1710958444544.0,-448.0,0.274678111076355,144.0,0.08828939497470856,-15728.0,9.643163681030273,2780.0,4048.820556640625,2567.0,1880.5860595703125,52565.0,824.8489379882812,1.2123432159423828
68478.2146028,0.9306551814079285,0.45921587637134664,0.36368869832092565,-11.413779271912416,15.356858902970679,199.6771154444994,21.95009470178155,11.251674379594292,-25.465553470318525,-39.91072224637096,13.779526885925147,-20.741507799546387,-0.1465242020364826,0.019060158700798278,0.9890234418697427,0.12817414906599386,0.006070456501806394,0.9917330976976961,50.05840226974949,55.76439813482565,3.29442164259654,4.299741180847468,2949077.0,1743843.75,1710958444544.0,-448.0,0.274678111076355,144.0,0.08828939497470856,-15696.0,9.623543739318848,2768.0,4031.343505859375,2545.0,1864.4688720703125,52567.0,824.2451782226562,1.2132312059402466
68478.3156156,0.9608160853385925,0.45792370060148435,0.3612878322607892,-11.698635566078028,15.61653249176002,197.3849035893374,21.95009470178155,11.251674379594292,-25.465553470318525,-39.91072224637096,13.779526885925147,-20.741507799546387,-0.14918084590036393,0.021644689799271262,0.9885730031818314,0.12817414906599386,0.006070456501806394,0.9917330976976961,49.8730678070649,55.76439813482565,3.2820535561652076,4.299741180847468,2949333.0,1743851.5,1710958444544.0,-464.0,0.2844880521297455,96.0,0.05885959416627884,-15680.0,9.613734245300293,2780.0,4048.820556640625,2558.0,1873.99267578125,52566.0,824.5469360351562,1.2127872705459595
68478.41741,0.9366737008094788,0.45839489572720565,0.36120414267899825,-11.450127045438597,15.498984857382894,195.71748634504954,21.95009470178155,11.251674379594292,-25.465553470318525,-39.91072224637096,13.779526885925147,-20.741507799546387,-0.14918084590036393,0.021644689799271262,0.9885730031818314,0.13025007593881383,0.005214765972997667,0.9914674598461516,49.8730678070649,55.85903092853981,3.2820535561652076,4.308063532906716,2949589.0,1743859.375,1710958444544.0,-448.0,0.274678111076355,64.0,0.039239730685949326,-15760.0,9.6627836227417,2771.0,4035.712890625,2553.0,1870.3297119140625,52567.0,824.2451782226562,1.2132312059402466
68478.5184189,0.9618596732616425,0.45826492044315287,0.36137455244162187,-11.479172020742924,15.45226250379994,195.51088739140596,21.95009470178155,11.251674379594292,-25.465553470318525,-39.91072224637096,13.779526885925147,-20.741507799546387,-0.14945315633026166,0.021246077701268577,0.988540519273355,0.13025007593881383,0.005214765972997667,0.9914674598461516,50.01649213651378,55.85903092853981,3.2918115158378347,4.308063532906716,2949845.0,1743867.25,1710958444544.0,-448.0,0.274678111076355,32.0,0.019619865342974663,-15776.0,9.672593116760254,2780.0,4048.820556640625,2562.0,1876.923095703125,52567.0,824.2451782226562,1.2132312059402466
68478.6193922,0.9852070808410645,0.45868029253893805,0.3622400345363559,-11.25827157555942,15.177463067817065,193.98772997257475,21.95009470178155,11.251674379594292,-25.465553470318525,-39.91072224637096,13.779526885925147,-20.741507799546387,-0.14945315633026166,0.021246077701268577,0.988540519273355,0.13211707779738593,0.0028914856719033486,0.9912299012161045,50.01649213651378,56.14633471411487,3.2918115158378347,4.330504439867223,2950101.0,1743875.0,1710958444544.0,-448.0,0.274678111076355,80.0,0.04904966428875923,-15728.0,9.643163681030273,2770.0,4034.25634765625,2549.0,1867.3992919921875,52568.0,823.9436645507812,1.2136752605438232
68478.7203463,0.9891376495361328,0.45801163962821284,0.36103771363670933,-11.40313588664918,15.302678049532737,192.86058025149583,21.95009470178155,11.251674379594292,-25.465553470318525,-39.91072224637096,13.779526885925147,-20.741507799546387,-0.15082247686109343,0.022515176642038184,0.988304430473861,0.13211707779738593,0.0028914856719033486,0.9912299012161045,50.10384652446183,56.14633471411487,3.2977315902360123,4.330504439867223,2950357.0,1743882.75,1710958444544.0,-432.0,0.2648681700229645,112.0,0.06866952776908875,-15744.0,9.652973175048828,2773.0,4038.625732421875,2551.0,1868.864501953125,52567.0,824.2451782226562,1.2132312059402466
68478.8206264,0.9783006906509399,0.4582841977984923,0.362203368186225,-11.345433159617212,15.134326252268988,193.34670222840458,21.95009470178155,11.251674379594292,-25.465553470318525,-39.91072224637096,13.779526885925147,-20.741507799546387,-0.15027406157900963,0.020920486001522354,0.9884230064511895,0.13211707779738593,0.0028914856719033486,0.9912299012161045,50.091941689921136,56.14633471411487,3.2973203144052947,4.330504439867223,2950613.0,1743890.625,1710958444544.0,-400.0,0.24524831771850586,96.0,0.05885959416627884,-15648.0,9.594114303588867,2773.0,4038.625732421875,2552.0,1869.5970458984375,52567.0,824.2451782226562,1.2132312059402466
68478.9213309,0.9891630411148071,0.45804038413969916,0.36242766282330907,-11.470528479891698,15.15929815412564,194.17145401420322,21.95009470178155,11.251674379594292,-25.465553470318525,-39.91072224637096,13.779526885925147,-20.741507799546387,-0.15027406157900963,0.020920486001522354,0.9884230064511895,0.13105315531023523,0.003030008298199157,0.9913707124647895,50.091941689921136,56.00702069488599,3.2973203144052947,4.3191986049492614,2950869.0,1743898.5,1710958444544.0,-368.0,0.22562845051288605,80.0,0.04904966428875923,-15696.0,9.623543739318848,2780.0,4048.820556640625,2560.0,1875.4578857421875,52567.0,824.2451782226562,1.2132312059402466
68479.0220633,0.9891630411148071,0.45842558576319936,0.361920401427689,-11.274237707933928,15.147971923188573,192.8844127920567,21.95009470178155,11.251674379594292,-25.465553470318525,-39.91072224637096,13.779526885925147,-20.741507799546387,-0.15027406157900963,0.020920486001522354,0.9884230064511895,0.1327267090870957,0.0030667466553955364,0.9911479282931791,50.091941689921136,55.665492879942555,3.2973203144052947,4.292705570930318,2951125.0,1743906.25,1710958444544.0,-448.0,0.274678111076355,64.0,0.039239730685949326,-15760.0,9.6627836227417,2767.0,4029.88720703125,2548.0,1866.6666259765625,52568.0,823.9436645507812,1.2136752605438232
68479.1229752,0.9918667376041412,0.4588757009724535,0.36268269106218765,-11.176340537594672,15.071462345662173,193.64002777243113,21.95009470178155,11.251674379594292,-25.465553470318525,-39.91072224637096,13.779526885925147,-20.741507799546387,-0.1493514207972842,0.020141063868127806,0.9885790260025208,0.1327267090870957,0.0030667466553955364,0.9911479282931791,49.94513623394497,55.665492879942555,3.287650015040369,4.292705570930318,2951381.0,1743914.0,1710958444544.0,-448.0,0.274678111076355,144.0,0.08828939497470856,-15760.0,9.6627836227417,2772.0,4037.169189453125,2543.0,1863.003662109375,52567.0,824.2451782226562,1.2132312059402466
68479.2237668,1.0,0.45913164606565654,0.36239135388354704,-11.119127656066897,15.154207658361535,194.04188851569938,21.95009470178155,11.251674379594292,-25.465553470318525,-39.91072224637096,13.779526885925147,-20.741507799546387,-0.14881613362590262,0.020854063374431398,0.9886449647944466,0.1327267090870957,0.0030667466553955364,0.9911479282931791,49.84139284277206,55.665492879942555,3.2806322750165737,4.292705570930318,2951637.0,1743921.875,1710958444544.0,-464.0,0.2844880521297455,208.0,0.12752912938594818,-15808.0,9.69221305847168,2766.0,4028.4306640625,2534.0,1856.4102783203125,52568.0,823.9436645507812,1.2136752605438232
68479.3243913,0.9807411730289459,0.459154628268683,0.3615400712869482,-11.112041126007606,15.304901428865893,194.03369017380157,21.95009470178155,11.251674379594292,-25.465553470318525,-39.91072224637096,13.779526885925147,-20.741507799546387,-0.14881613362590262,0.020854063374431398,0.9886449647944466,0.13279074933047938,0.004441639299406794,0.9911341426530436,49.84139284277206,55.54923666890329,3.2806322750165737,4.282939480364525,2951893.0,1743929.75,1710958444544.0,-416.0,0.25505825877189636,112.0,0.06866952776908875,-15808.0,9.69221305847168,2781.0,4050.27685546875,2557.0,1873.2601318359375,52567.0,824.2451782226562,1.2132312059402466
68479.4253709,0.9807411730289459,0.4585154867855506,0.361111443252339,-11.25256503569569,15.298854619212069,192.98525354558444,21.95009470178155,11.251674379594292,-25.465553470318525,-39.91072224637096,13.779526885925147,-20.741507799546387,-0.15013607263577305,0.020917086007641875,0.98844404758512,0.13279074933047938,0.004441639299406794,0.9911341426530436,49.67216334370673,55.54923666890329,3.269839804883852,4.282939480364525,2952149.0,1743937.5,1710958444544.0,-416.0,0.25505825877189636,112.0,0.06866952776908875,-15728.0,9.643163681030273,2769.0,4032.800048828125,2547.0,1865.93408203125,52568.0,823.9436645507812,1.2136752605438232
68479.5263674,0.9734381139278412,0.4579773338663432,0.3624105252002442,-11.524043059941592,15.206799704508423,194.7396358758037,21.95009470178155,11.251674379594292,-25.465553470318525,-39.91072224637096,13.779526885925147,-20.741507799546387,-0.15013607263577305,0.020917086007641875,0.98844404758512,0.13047797258973637,0.003403865552517203,0.9914453652966322,49.67216334370673,55.71996171773685,3.269839804883852,4.298266925310952,2952405.0,1743945.25,1710958444544.0,-432.0,0.2648681700229645,112.0,0.06866952776908875,-15744.0,9.652973175048828,2778.0,4045.90771484375,2558.0,1873.99267578125,52568.0,823.9436645507812,1.2136752605438232
68479.6280952,0.9723672866821289,0.4582040294178049,0.3621815490215491,-11.473749491959298,15.275604651370664,195.10038245803733,21.95009470178155,11.251674379594292,-25.465553470318525,-39.91072224637096,13.779526885925147,-20.741507799546387,-0.1496624987543893,0.021502596736014214,0.9885033003486638,0.13047797258973637,0.003403865552517203,0.9914453652966322,49.71298033623474,55.71996171773685,3.2721786602823926,4.298266925310952,2952661.0,1743953.125,1710958444544.0,-432.0,0.2648681700229645,144.0,0.08828939497470856,-15680.0,9.613734245300293,2780.0,4048.820556640625,2564.0,1878.3883056640625,52567.0,824.2451782226562,1.2132312059402466
68479.7293975,0.9599646031856537,0.45835976970478687,0.3620038211207748,-11.3935550789094,15.265646714491949,194.5710972948371,21.95009470178155,11.251674379594292,-25.465553470318525,-39.91072224637096,13.779526885925147,-20.741507799546387,-0.1496624987543893,0.021502596736014214,0.9885033003486638,0.13115641123103058,0.0033729336408984375,0.9913559497534933,49.71298033623474,55.69054573574492,3.2721786602823926,4.296252335019583,2952917.0,1743961.0,1710958444544.0,-400.0,0.24524831771850586,128.0,0.07847946137189865,-15728.0,9.643163681030273,2774.0,4040.08203125,2558.0,1873.99267578125,52568.0,823.9436645507812,1.2136752605438232
68479.8302164,0.961035430431366,0.4582834462453099,0.3630364878680139,-11.412158625733486,15.07537181648281,194.49035089492614,21.95009470178155,11.251674379594292,-25.465553470318525,-39.91072224637096,13.779526885925147,-20.741507799546387,-0.14983534130921855,0.019780289366003356,0.9885130806657781,0.13115641123103058,0.0033729336408984375,0.9913559497534933,49.92031942311078,55.69054573574492,3.285975695016787,4.296252335019583,2953173.0,1743968.75,1710958444544.0,-432.0,0.2648681700229645,144.0,0.08828939497470856,-15712.0,9.633354187011719,2770.0,4034.25634765625,2548.0,1866.6666259765625,52568.0,823.9436645507812,1.2136752605438232
68479.9314194,0.9644955098628998,0.45885633521327873,0.3615923766290584,-11.125162269708577,15.185698837767298,192.63460731328954,21.95009470178155,11.251674379594292,-25.465553470318525,-39.91072224637096,13.779526885925147,-20.741507799546387,-0.14983534130921855,0.019780289366003356,0.9885130806657781,0.13361318482814377,0.004581426513356398,0.9910229701531559,49.92031942311078,55.67597502313918,3.285975695016787,4.294464694201911,2953429.0,1743976.5,1710958444544.0,-432.0,0.2648681700229645,96.0,0.05885959416627884,-15760.0,9.6627836227417,2773.0,4038.625732421875,2550.0,1868.1318359375,52567.0,824.2451782226562,1.2132312059402466
68480.032262,0.951211154460907,0.45821130769152496,0.3619967341720124,-11.267261877532048,15.035975549200234,191.62543542028212,21.95009470178155,11.251674379594292,-25.465553470318525,-39.91072224637096,13.779526885925147,-20.741507799546387,-0.15117704107773913,0.018510528478057946,0.9883333762382218,0.13361318482814377,0.004581426513356398,0.9910229701531559,50.26571662122978,55.67597502313918,3.30862435554052,4.294464694201911,2953685.0,1743984.375,1710958444544.0,-400.0,0.24524831771850586,128.0,0.07847946137189865,-15728.0,9.643163681030273,2780.0,4048.820556640625,2560.0,1875.4578857421875,52567.0,824.2451782226562,1.2132312059402466
68480.1332731,0.9423954784870148,0.45795493434505896,0.362928577601618,-11.393441388082033,14.93441918722346,192.42089426554307,21.95009470178155,11.251674379594292,-25.465553470318525,-39.91072224637096,13.779526885925147,-20.741507799546387,-0.15117704107773913,0.018510528478057946,0.9883333762382218,0.13252617882153248,0.0035647083691393716,0.9911730952670207,50.26571662122978,55.664357845661684,3.30862435554052,4.29368769089353,2953941.0,1743992.25,1710958444544.0,-416.0,0.25505825877189636,128.0,0.07847946137189865,-15776.0,9.672593116760254,2778.0,4045.90771484375,2564.0,1878.3883056640625,52567.0,824.2451782226562,1.2132312059402466
68480.2343243,0.9576591849327087,0.4584389641397223,0.3626037301417111,-11.148217562940072,14.865393081588332,190.80785259685103,21.95009470178155,11.251674379594292,-25.465553470318525,-39.91072224637096,13.779526885925147,-20.741507799546387,-0.15117704107773913,0.018510528478057946,0.9883333762382218,0.13463973952585254,0.003089966663902076,0.9908897984369537,50.26571662122978,55.663305558774255,3.30862435554052,4.2937005864945625,2954197.0,1744000.0,1710958444544.0,-448.0,0.274678111076355,128.0,0.07847946137189865,-15808.0,9.69221305847168,2768.0,4031.343505859375,2544.0,1863.7362060546875,52568.0,823.9436645507812,1.2136752605438232
68480.3353577,0.9709435403347015,0.4595598355069933,0.36512684119007,-10.905633394065433,14.565002588710541,192.68675858060593,21.95009470178155,11.251674379594292,-25.465553470318525,-39.91072224637096,13.779526885925147,-20.741507799546387,-0.14889032135438734,0.015573830942772492,0.9887310696022217,0.13463973952585254,0.003089966663902076,0.9908897984369537,49.89988972463008,55.663305558774255,3.2844164610730147,4.2937005864945625,2954453.0,1744007.75,1710958444544.0,-416.0,0.25505825877189636,112.0,0.06866952776908875,-15760.0,9.6627836227417,2773.0,4038.625732421875,2548.0,1866.6666259765625,52567.0,824.2451782226562,1.2132312059402466
68480.4364251,0.9436759650707245,0.46002970345230887,0.3655917193221102,-10.801606213794619,14.540563346651314,193.46054113954472,21.95009470178155,11.251674379594292,-25.465553470318525,-39.91072224637096,13.779526885925147,-20.741507799546387,-0.14792148870560282,0.015286389145881405,0.9888809632539192,0.13463973952585254,0.003089966663902076,0.9908897984369537,49.75640544142906,55.663305558774255,3.2748466212033294,4.2937005864945625,2954709.0,1744015.625,1710958444544.0,-464.0,0.2844880521297455,128.0,0.07847946137189865,-15776.0,9.672593116760254,2778.0,4045.90771484375,2559.0,1874.7252197265625,52568.0,823.9436645507812,1.2136752605438232
68480.5373972,0.9460726380348206,0.46011021727301316,0.3649301452407475,-10.764443935762221,14.640883728088856,193.2390235798092,21.95009470178155,11.251674379594292,-25.465553470318525,-39.91072224637096,13.779526885925147,-20.741507799546387,-0.14792148870560282,0.015286389145881405,0.9888809632539192,0.13496416006662726,0.004026578926047964,0.9908422993391343,49.75640544142906,55.61904827361953,3.2748466212033294,4.2903628323392775,2954965.0,1744023.5,1710958444544.0,-432.0,0.2648681700229645,144.0,0.08828939497470856,-15856.0,9.721643447875977,2780.0,4048.820556640625,2565.0,1879.120849609375,52568.0,823.9436645507812,1.2136752605438232
68480.6383926,0.94138503074646,0.45952649759884034,0.3653653386132999,-10.895225968028932,14.49546258614632,192.32193883177115,21.95009470178155,11.251674379594292,-25.465553470318525,-39.91072224637096,13.779526885925147,-20.741507799546387,-0.14913903717952604,0.01402900287709568,0.9887167110287144,0.13496416006662726,0.004026578926047964,0.9908422993391343,49.91202487753501,55.61904827361953,3.28536177626599,4.2903628323392775,2955221.0,1744031.25,1710958444544.0,-416.0,0.25505825877189636,160.0,0.09809932857751846,-15776.0,9.672593116760254,2766.0,4028.4306640625,2543.0,1863.003662109375,52569.0,823.642333984375,1.2141191959381104
68480.7393086,0.9042506814002991,0.4587687299938432,0.3653781077252434,-11.28279609201787,14.69083687460017,194.9317787381617,21.95009470178155,11.251674379594292,-25.465553470318525,-39.91072224637096,13.779526885925147,-20.741507799546387,-0.14913903717952604,0.01402900287709568,0.9887167110287144,0.13163819956345693,0.00558773287454144,0.9912820797618679,49.91202487753501,55.441212813219536,3.28536177626599,4.277295107261359,2955477.0,1744039.0,1710958444544.0,-400.0,0.24524831771850586,192.0,0.11771918833255768,-15760.0,9.6627836227417,2774.0,4040.08203125,2549.0,1867.3992919921875,52568.0,823.9436645507812,1.2136752605438232
68480.8404024,0.9360896348953247,0.45048151351445453,0.4148712493122665,-41.79939913428723,17.749375606153933,587.1380347565178,132.12064749736982,424.3911907557786,353.9122824231602,nan,nan,nan,-0.3478400932633141,-0.8132836302992494,0.4664515046667151,nan,nan,nan,49.91202487753501,nan,3.28536177626599,nan,2955733.0,1744046.875,1710958444544.0,-448.0,0.274678111076355,128.0,0.07847946137189865,-15760.0,9.6627836227417,2778.0,4045.90771484375,2559.0,1874.7252197265625,52568.0,823.9436645507812,1.2136752605438232
68480.9412787,0.9625542461872101,0.4582884639200227,0.36541888674299927,-11.370345050251629,14.601487951870752,193.8342027408147,21.95009470178155,11.251674379594292,-25.465553470318525,-39.91072224637096,13.779526885925147,-20.741507799546387,-0.15020039642997032,0.015065107988812323,0.988540784911561,0.13184771744598,0.003832057370547491,0.9912625760819349,49.80998274904439,55.538223771831724,3.278813256946573,4.286906568883196,2955989.0,1744054.75,1710958444544.0,-416.0,0.25505825877189636,96.0,0.05885959416627884,-15776.0,9.672593116760254,2780.0,4048.820556640625,2565.0,1879.120849609375,52566.0,824.5469360351562,1.2127872705459595
68481.0423567,0.9319014251232147,0.4581993408376408,0.3652346963910007,-11.389604178101099,14.622852272598276,193.68257823507815,21.95009470178155,11.251674379594292,-25.465553470318525,-39.91072224637096,13.779526885925147,-20.741507799546387,-0.1503825611691092,0.015272912264019306,0.98850990053069,0.13184771744598,0.003832057370547491,0.9912625760819349,49.636105133498766,55.538223771831724,3.2675727386729987,4.286906568883196,2956245.0,1744062.5,1710958444544.0,-432.0,0.2648681700229645,96.0,0.05885959416627884,-15824.0,9.70202350616455,2774.0,4040.08203125,2558.0,1873.99267578125,52568.0,823.9436645507812,1.2136752605438232
68481.143372,0.9284870624542236,0.457731405118947,0.3675584819089892,-11.620387483813884,14.316428169820085,195.11514167021164,21.95009470178155,11.251674379594292,-25.465553470318525,-39.91072224637096,13.779526885925147,-20.741507799546387,-0.1503825611691092,0.015272912264019306,0.98850990053069,0.12988693812497218,0.0009278390123760861,0.9915283770116148,49.636105133498766,55.40815824686184,3.2675727386729987,4.277312464904606,2956501.0,1744070.25,1710958444544.0,-448.0,0.274678111076355,96.0,0.05885959416627884,-15744.0,9.652973175048828,2781.0,4050.27685546875,2571.0,1883.5164794921875,52568.0,823.9436645507812,1.2136752605438232
68481.2443137,0.9244787991046906,0.45789195100617225,0.3675032319728655,-11.58504176086818,14.345243062356223,195.37593863770837,21.95009470178155,11.251674379594292,-25.465553470318525,-39.91072224637096,13.779526885925147,-20.741507799546387,-0.1500488099013401,0.015515566879049423,0.9885568379368043,0.12988693812497218,0.0009278390123760861,0.9915283770116148,49.606219627483014,55.40815824686184,3.266039224866627,4.277312464904606,2956757.0,1744078.125,1710958444544.0,-384.0,0.23543837666511536,144.0,0.08828939497470856,-15696.0,9.623543739318848,2779.0,4047.364013671875,2575.0,1886.4468994140625,52567.0,824.2451782226562,1.2132312059402466
68481.3452229,0.9255090951919556,0.45758139004519116,0.36671178882462696,-11.753880073893919,14.573724529993012,196.54260328716015,21.95009470178155,11.251674379594292,-25.465553470318525,-39.91072224637096,13.779526885925147,-20.741507799546387,-0.1500488099013401,0.015515566879049423,0.9885568379368043,0.12848092692587007,0.0029017166061641956,0.9917077348982445,49.606219627483014,55.05817124046765,3.266039224866627,4.249285184920753,2957013.0,1744086.0,1710958444544.0,-416.0,0.25505825877189636,192.0,0.11771918833255768,-15760.0,9.6627836227417,2788.0,4060.4716796875,2588.0,1895.970703125,52566.0,824.5469360351562,1.2127872705459595
68481.4459566,0.9445165693759918,0.4562541132003646,0.36620704127220827,-12.041553886938205,14.50218447648551,194.3429131417281,21.95009470178155,11.251674379594292,-25.465553470318525,-39.91072224637096,13.779526885925147,-20.741507799546387,-0.15279193955860032,0.015042936385851304,0.9881438828788105,0.12848092692587007,0.0029017166061641956,0.9917077348982445,49.73463699968844,55.05817124046765,3.27492688536976,4.249285184920753,2957269.0,1744093.75,1710958444544.0,-432.0,0.2648681700229645,160.0,0.09809932857751846,-15744.0,9.652973175048828,2769.0,4032.800048828125,2560.0,1875.4578857421875,52568.0,823.9436645507812,1.2136752605438232
68481.5463175,0.9612706899642944,0.4563907399050923,0.3672025937723775,-11.963060569478586,14.283475266027093,193.78198646216316,21.95009470178155,11.251674379594292,-25.465553470318525,-39.91072224637096,13.779526885925147,-20.741507799546387,-0.15279193955860032,0.015042936385851304,0.9881438828788105,0.1291301722754949,0.0009509277352985933,0.9916271952425181,49.73463699968844,55.49365517541815,3.27492688536976,4.284072458272302,2957525.0,1744101.5,1710958444544.0,-432.0,0.2648681700229645,128.0,0.07847946137189865,-15712.0,9.633354187011719,2781.0,4050.27685546875,2572.0,1884.2490234375,52568.0,823.9436645507812,1.2136752605438232
68481.647315,0.9570690393447876,0.4555767364766844,0.36587393190935225,-12.134503428258421,14.418465706089385,192.42211519457072,21.95009470178155,11.251674379594292,-25.465553470318525,-39.91072224637096,13.779526885925147,-20.741507799546387,-0.15445480607350287,0.016379248563829267,0.9878640762257128,0.1291301722754949,0.0009509277352985933,0.9916271952425181,49.343428741371085,55.49365517541815,3.249130879743942,4.284072458272302,2957781.0,1744109.375,1710958444544.0,-432.0,0.2648681700229645,128.0,0.07847946137189865,-15712.0,9.633354187011719,2766.0,4028.4306640625,2546.0,1865.201416015625,52568.0,823.9436645507812,1.2136752605438232
68481.7484125,0.9374148547649384,0.4552906877001989,0.36682258413343505,-12.280786697955033,14.3188061852785,193.3287136351339,21.95009470178155,11.251674379594292,-25.465553470318525,-39.91072224637096,13.779526885925147,-20.741507799546387,-0.15445480607350287,0.016379248563829267,0.9878640762257128,0.12790492950566634,-3.2333565841933717e-05,0.9917864326369317,49.343428741371085,55.188212109586146,3.249130879743942,4.260820129644318,2958037.0,1744117.25,1710958444544.0,-416.0,0.25505825877189636,112.0,0.06866952776908875,-15728.0,9.643163681030273,2778.0,4045.90771484375,2558.0,1873.99267578125,52567.0,824.2451782226562,1.2132312059402466
68481.8488818,0.9563904702663422,0.4550986035845968,0.3669644714874313,-12.32171463291975,14.271600128515551,193.026508011905,21.95009470178155,11.251674379594292,-25.465553470318525,-39.91072224637096,13.779526885925147,-20.741507799546387,-0.1548532021470532,0.015968694541884786,0.9878084260520519,0.12790492950566634,-3.2333565841933717e-05,0.9917864326369317,49.59517281185298,55.188212109586146,3.266168823636238,4.260820129644318,2958293.0,1744125.0,1710958444544.0,-432.0,0.2648681700229645,96.0,0.05885959416627884,-15760.0,9.6627836227417,2766.0,4028.4306640625,2540.0,1860.805908203125,52567.0,824.2451782226562,1.2132312059402466
68481.9494024,0.9620515704154968,0.4545060921454865,0.3685627809831108,-12.631491274384034,14.12991770161009,194.95864219598002,21.95009470178155,11.251674379594292,-25.465553470318525,-39.91072224637096,13.779526885925147,-20.741507799546387,-0.1548532021470532,0.015968694541884786,0.9878084260520519,0.12534426583420177,-0.0014582845891138393,0.9921122358022514,49.59517281185298,55.156956003011146,3.266168823636238,4.259110443764184,2958549.0,1744132.75,1710958444544.0,-368.0,0.22562845051288605,128.0,0.07847946137189865,-15760.0,9.6627836227417,2773.0,4038.625732421875,2546.0,1865.201416015625,52567.0,824.2451782226562,1.2132312059402466
68482.0510282,0.9691672325134277,0.45419773448699957,0.36769786189593623,-12.806341174050239,14.370599034641119,196.13029818218513,21.95009470178155,11.251674379594292,-25.465553470318525,-39.91072224637096,13.779526885925147,-20.741507799546387,-0.1548532021470532,0.015968694541884786,0.9878084260520519,0.12393014795578028,0.000639159855640577,0.992290738595467,49.59517281185298,55.0650113276559,3.266168823636238,4.2517888561482255,2958805.0,1744140.625,1710958444544.0,-448.0,0.274678111076355,144.0,0.08828939497470856,-15712.0,9.633354187011719,2779.0,4047.364013671875,2564.0,1878.3883056640625,52567.0,824.2451782226562,1.2132312059402466
68482.1521605,0.9563688039779663,0.45518801942775766,0.36759168066930825,-12.595494028278727,14.508821750406822,197.7730900010859,21.95009470178155,11.251674379594292,-25.465553470318525,-39.91072224637096,13.779526885925147,-20.741507799546387,-0.15280318653154165,0.01708980424053797,0.988108862816657,0.12393014795578028,0.000639159855640577,0.992290738595467,49.56029236397005,55.0650113276559,3.264005246514169,4.2517888561482255,2959061.0,1744148.5,1710958444544.0,-496.0,0.3041079044342041,160.0,0.09809932857751846,-15728.0,9.643163681030273,2779.0,4047.364013671875,2572.0,1884.2490234375,52566.0,824.5469360351562,1.2127872705459595
68482.2523304,0.9400937557220459,0.4811543483379368,0.37623926234539473,-10.452967574418068,31.596930562137857,483.5725324655141,nan,nan,nan,-103.81629899564862,-143.4327016467205,24.608572883978706,nan,nan,nan,0.18672666284246112,0.3500592644177168,0.9179279191630708,nan,55.0650113276559,nan,4.2517888561482255,2959317.0,1744156.25,1710958444544.0,-432.0,0.2648681700229645,160.0,0.09809932857751846,-15744.0,9.652973175048828,2770.0,4034.25634765625,2555.0,1871.794921875,52567.0,824.2451782226562,1.2132312059402466
68482.3533486,0.9808332324028015,0.45530601694883543,0.3666056006339409,-12.531650087839932,14.656032154528493,197.35260679849574,21.95009470178155,11.251674379594292,-25.465553470318525,-39.91072224637096,13.779526885925147,-20.741507799546387,-0.1528184866282895,0.017488910207445033,0.9880995132902329,0.12446276671563244,0.0015958236403341287,0.9922229956256803,49.28954254537315,55.327661282016045,3.2464787874234533,4.272688110469585,2959573.0,1744164.0,1710958444544.0,-384.0,0.23543837666511536,112.0,0.06866952776908875,-15728.0,9.643163681030273,2775.0,4041.53857421875,2559.0,1874.7252197265625,52566.0,824.5469360351562,1.2127872705459595
68482.4543915,0.9808332324028015,0.45478981172088934,0.36723703476565617,-12.81387479050227,14.67687521069412,199.17454145790572,21.95009470178155,11.251674379594292,-25.465553470318525,-39.91072224637096,13.779526885925147,-20.741507799546387,-0.1528184866282895,0.017488910207445033,0.9880995132902329,0.12219102868616624,0.0016272172210145131,0.992505266823674,49.28954254537315,55.15921093920619,3.2464787874234533,4.2591752176517925,2959829.0,1744171.875,1710958444544.0,-448.0,0.274678111076355,128.0,0.07847946137189865,-15664.0,9.603923797607422,2780.0,4048.820556640625,2565.0,1879.120849609375,52566.0,824.5469360351562,1.2127872705459595
68482.5553289,0.9796248078346252,0.45308927458804754,0.3647787696042323,-13.168059196586842,14.90347118956231,196.2197241622177,21.95009470178155,11.251674379594292,-25.465553470318525,-39.91072224637096,13.779526885925147,-20.741507799546387,-0.15630083347397847,0.01978191576214151,0.987511379814997,0.12219102868616624,0.0016272172210145131,0.992505266823674,49.527939117915274,55.15921093920619,3.262004183127435,4.2591752176517925,2960085.0,1744179.75,1710958444544.0,-432.0,0.2648681700229645,144.0,0.08828939497470856,-15776.0,9.672593116760254,2781.0,4050.27685546875,2573.0,1884.981689453125,52566.0,824.5469360351562,1.2127872705459595
68482.6564181,0.9256266057491302,0.4528159957949695,0.36412645126813303,-13.326272153357412,15.101053163108578,197.26301944275124,21.95009470178155,11.251674379594292,-25.465553470318525,-39.91072224637096,13.779526885925147,-20.741507799546387,-0.15630083347397847,0.01978191576214151,0.987511379814997,0.12093649913944216,0.00330279811106544,0.9926547510088959,49.527939117915274,55.00547952745427,3.262004183127435,4.245940159870554,2960341.0,1744187.5,1710958444544.0,-464.0,0.2844880521297455,128.0,0.07847946137189865,-15760.0,9.6627836227417,2774.0,4040.08203125,2563.0,1877.6556396484375,52567.0,824.2451782226562,1.2132312059402466
68482.7574726,0.946001797914505,0.45428366165158796,0.3644227710793533,-13.017673245971626,15.235223474329665,199.7531398889553,21.95009470178155,11.251674379594292,-25.465553470318525,-39.91072224637096,13.779526885925147,-20.741507799546387,-0.15326897230967215,0.020725721370672016,0.9879671384215177,0.12093649913944216,0.00330279811106544,0.9926547510088959,49.768507179829854,55.00547952745427,3.2764525709592673,4.245940159870554,2960597.0,1744195.25,1710958444544.0,-400.0,0.24524831771850586,112.0,0.06866952776908875,-15744.0,9.652973175048828,2775.0,4041.53857421875,2563.0,1877.6556396484375,52567.0,824.2451782226562,1.2132312059402466
68482.8581127,0.9837401509284973,0.4546309600792623,0.36248874451290436,-12.835244492531835,15.502659132385892,198.6496317801736,21.95009470178155,11.251674379594292,-25.465553470318525,-39.91072224637096,13.779526885925147,-20.741507799546387,-0.15326897230967215,0.020725721370672016,0.9879671384215177,0.12239952527707049,0.005809146254821354,0.9924639086796748,49.768507179829854,55.09126363921505,3.2764525709592673,4.2522216778877775,2960853.0,1744203.125,1710958444544.0,-384.0,0.23543837666511536,128.0,0.07847946137189865,-15712.0,9.633354187011719,2764.0,4025.51806640625,2536.0,1857.87548828125,52569.0,823.642333984375,1.2141191959381104
68482.9583063,0.9406450986862183,0.45440676347342224,0.3626432942570129,-12.883349621315903,15.445898221654689,198.27796225790553,21.95009470178155,11.251674379594292,-25.465553470318525,-39.91072224637096,13.779526885925147,-20.741507799546387,-0.15373548729145375,0.020261020442825833,0.9879042924281051,0.12239952527707049,0.005809146254821354,0.9924639086796748,49.53973541021914,55.09126363921505,3.2620434849476014,4.2522216778877775,2961109.0,1744211.0,1710958444544.0,-432.0,0.2648681700229645,80.0,0.04904966428875923,-15792.0,9.682403564453125,2778.0,4045.90771484375,2553.0,1870.3297119140625,52568.0,823.9436645507812,1.2136752605438232
68483.0585816,0.9281220436096191,0.45469786333947565,0.3619478769354453,-12.725971814715283,15.493758461771959,197.28344406972604,21.95009470178155,11.251674379594292,-25.465553470318525,-39.91072224637096,13.779526885925147,-20.741507799546387,-0.15373548729145375,0.020261020442825833,0.9879042924281051,0.1236667460266731,0.006355101156747459,0.9923034559127879,49.53973541021914,55.27671200259992,3.2620434849476014,4.266131891133792,2961365.0,1744218.75,1710958444544.0,-416.0,0.25505825877189636,96.0,0.05885959416627884,-15840.0,9.711833000183105,2769.0,4032.800048828125,2545.0,1864.4688720703125,52568.0,823.9436645507812,1.2136752605438232
68483.158804,0.95607128739357,0.4546946255680836,0.3606988716724554,-12.724206408862996,15.714922127199987,197.2236622034203,21.95009470178155,11.251674379594292,-25.465553470318525,-39.91072224637096,13.779526885925147,-20.741507799546387,-0.15372487095613194,0.022255557165680374,0.9878630240194061,0.1236667460266731,0.006355101156747459,0.9923034559127879,49.30686160498094,55.27671200259992,3.2462343172432844,4.266131891133792,2961621.0,1744226.5,1710958444544.0,-432.0,0.2648681700229645,128.0,0.07847946137189865,-15744.0,9.652973175048828,2768.0,4031.343505859375,2534.0,1856.4102783203125,52567.0,824.2451782226562,1.2132312059402466
68483.2603852,0.932685911655426,0.4555130088225258,0.36001110321243224,-12.282424655103775,15.609276692485707,194.3744683468213,21.95009470178155,11.251674379594292,-25.465553470318525,-39.91072224637096,13.779526885925147,-20.741507799546387,-0.15372487095613194,0.022255557165680374,0.9878630240194061,0.12727660203888805,0.005762534023956255,0.9918505228990189,49.30686160498094,55.20142149912366,3.2462343172432844,4.260135928628376,2961877.0,1744234.375,1710958444544.0,-384.0,0.23543837666511536,80.0,0.04904966428875923,-15616.0,9.574494361877441,2772.0,4037.169189453125,2537.0,1858.6080322265625,52566.0,824.5469360351562,1.2127872705459595
68483.361389,0.9350498020648956,0.4553005160952245,0.36101961448482334,-12.329545294974738,15.405886287335461,194.0727216274093,21.95009470178155,11.251674379594292,-25.465553470318525,-39.91072224637096,13.779526885925147,-20.741507799546387,-0.15417801810206264,0.020439261464993294,0.9878316533321282,0.12727660203888805,0.005762534023956255,0.9918505228990189,49.49609689233346,55.20142149912366,3.2587434902487837,4.260135928628376,2962133.0,1744242.25,1710958444544.0,-480.0,0.2942979633808136,96.0,0.05885959416627884,-15696.0,9.623543739318848,2778.0,4045.90771484375,2553.0,1870.3297119140625,52566.0,824.5469360351562,1.2127872705459595
68483.4624053,0.9710898995399475,0.4550813205235956,0.36139872481174484,-12.4454150752835,15.39695561712,194.80917499298607,21.95009470178155,11.251674379594292,-25.465553470318525,-39.91072224637096,13.779526885925147,-20.741507799546387,-0.15417801810206264,0.020439261464993294,0.9878316533321282,0.1263198105395667,0.005594175617479276,0.9919737953516761,49.49609689233346,55.20364849355948,3.2587434902487837,4.260568528372008,2962389.0,1744250.0,1710958444544.0,-448.0,0.274678111076355,80.0,0.04904966428875923,-15776.0,9.672593116760254,2768.0,4031.343505859375,2538.0,1859.3406982421875,52567.0,824.2451782226562,1.2132312059402466
68483.5643319,0.9375219643115997,0.45485300954020136,0.36186588597137725,-12.566585485106076,15.37413627451129,195.5760080756662,21.95009470178155,11.251674379594292,-25.465553470318525,-39.91072224637096,13.779526885925147,-20.741507799546387,-0.15417801810206264,0.020439261464993294,0.9878316533321282,0.12532537095226656,0.005297635893519302,0.9921015504723378,49.49609689233346,55.16915049522475,3.2587434902487837,4.25729016702687,2962645.0,1744257.75,1710958444544.0,-448.0,0.274678111076355,128.0,0.07847946137189865,-15696.0,9.623543739318848,2777.0,4044.451171875,2554.0,1871.062255859375,52567.0,824.2451782226562,1.2132312059402466
68483.6677301,0.9130693674087524,0.4556744708902727,0.36170753629122154,-12.390652999524626,15.507727867634625,196.9271016503181,21.95009470178155,11.251674379594292,-25.465553470318525,-39.91072224637096,13.779526885925147,-20.741507799546387,-0.1524756583661451,0.021488945772106454,0.9880735796566034,0.12532537095226656,0.005297635893519302,0.9921015504723378,49.28290936523237,55.16915049522475,3.244848265752939,4.25729016702687,2962901.0,1744265.625,1710958444544.0,-384.0,0.23543837666511536,80.0,0.04904966428875923,-15664.0,9.603923797607422,2780.0,4048.820556640625,2561.0,1876.1904296875,52566.0,824.5469360351562,1.2127872705459595
68483.7684145,0.9503038823604584,0.45657132909406933,0.3641306013177714,-12.200745962566053,15.192354399052206,198.53704144313087,21.95009470178155,11.251674379594292,-25.465553470318525,-39.91072224637096,13.779526885925147,-20.741507799546387,-0.15064920266297868,0.01848299025126275,0.9884144863408167,0.12532537095226656,0.005297635893519302,0.9921015504723378,49.74267720627624,55.16915049522475,3.2751363727940825,4.25729016702687,2963157.0,1744273.5,1710958444544.0,-352.0,0.21581850945949554,64.0,0.039239730685949326,-15712.0,9.633354187011719,2786.0,4057.55908203125,2580.0,1890.10986328125,52565.0,824.8489379882812,1.2123432159423828
68483.8693018,0.977359265089035,0.45672567499225414,0.3633686811802068,-12.12139534099412,15.292668904098683,198.0439933153644,21.95009470178155,11.251674379594292,-25.465553470318525,-39.91072224637096,13.779526885925147,-20.741507799546387,-0.15064920266297868,0.01848299025126275,0.9884144863408167,0.12597649569808658,0.0062482319658144925,0.9920135493676139,49.74267720627624,55.28868052551756,3.2751363727940825,4.265223239937436,2963413.0,1744281.25,1710958444544.0,-448.0,0.274678111076355,64.0,0.039239730685949326,-15744.0,9.652973175048828,2770.0,4034.25634765625,2558.0,1873.99267578125,52567.0,824.2451782226562,1.2132312059402466
68483.9698825,0.959689199924469,0.45688030968921123,0.3636137095849711,-12.036186641087639,15.203427924376097,197.46521053567022,21.95009470178155,11.251674379594292,-25.465553470318525,-39.91072224637096,13.779526885925147,-20.741507799546387,-0.15064920266297868,0.01848299025126275,0.9884144863408167,0.12667284379501742,0.005510940345094422,0.9919292415194725,49.74267720627624,55.01271794973066,3.2751363727940825,4.2437300781116924,2963669.0,1744289.0,1710958444544.0,-432.0,0.2648681700229645,128.0,0.07847946137189865,-15728.0,9.643163681030273,2774.0,4040.08203125,2556.0,1872.5274658203125,52566.0,824.5469360351562,1.2127872705459595
68484.07011,0.959689199924469,0.45711693468817616,0.36335788135812597,-11.98386638770322,15.279181036106099,197.85097666952262,21.95009470178155,11.251674379594292,-25.465553470318525,-39.91072224637096,13.779526885925147,-20.741507799546387,-0.15015432149666744,0.019121528521899713,0.9884776410637024,0.12667284379501742,0.005510940345094422,0.9919292415194725,49.397215383547234,55.01271794973066,3.251956119660282,4.2437300781116924,2963925.0,1744296.875,1710958444544.0,-400.0,0.24524831771850586,112.0,0.06866952776908875,-15712.0,9.633354187011719,2770.0,4034.25634765625,2546.0,1865.201416015625,52566.0,824.5469360351562,1.2127872705459595
68484.1708283,0.9208021461963654,0.4569272658442375,0.3623169332423192,-12.02350573933794,15.43977026865378,197.48763127286128,21.95009470178155,11.251674379594292,-25.465553470318525,-39.91072224637096,13.779526885925147,-20.741507799546387,-0.15053361900027715,0.02060230329862791,0.9883901935215013,0.12667284379501742,0.005510940345094422,0.9919292415194725,49.514166652477314,55.01271794973066,3.2594929852981185,4.2437300781116924,2964181.0,1744304.75,1710958444544.0,-400.0,0.24524831771850586,144.0,0.08828939497470856,-15680.0,9.613734245300293,2756.0,4013.86669921875,2511.0,1839.5604248046875,52567.0,824.2451782226562,1.2132312059402466
68484.2713646,0.9324748814105988,0.45643151005842253,0.36307390499128367,-12.288781465827208,15.437688724425396,199.21977605002695,21.95009470178155,11.251674379594292,-25.465553470318525,-39.91072224637096,13.779526885925147,-20.741507799546387,-0.15053361900027715,0.02060230329862791,0.9883901935215013,0.12450672296443141,0.00529192891620974,0.9922046519871817,49.514166652477314,55.16773438718056,3.2594929852981185,4.254904005007649,2964437.0,1744312.5,1710958444544.0,-464.0,0.2844880521297455,144.0,0.08828939497470856,-15680.0,9.613734245300293,2771.0,4035.712890625,2531.0,1854.21240234375,52568.0,823.9436645507812,1.2136752605438232
68484.3723351,0.9427238702774048,0.4815108084730543,0.37122794830871,-10.158740556574742,33.74761094663347,482.6865122966434,nan,nan,nan,-103.81629899564862,-143.4327016467205,24.608572883978706,nan,nan,nan,0.1873151168781477,0.3543606251867081,0.9161558788253293,nan,55.16773438718056,nan,4.254904005007649,2964693.0,1744320.25,1710958444544.0,-432.0,0.2648681700229645,96.0,0.05885959416627884,-15728.0,9.643163681030273,2774.0,4040.08203125,2543.0,1863.003662109375,52567.0,824.2451782226562,1.2132312059402466
68484.4737757,0.9043037593364716,0.45583414294267677,0.3613342374235542,-12.317411546030819,15.546544535739532,196.56873552171083,21.95009470178155,11.251674379594292,-25.465553470318525,-39.91072224637096,13.779526885925147,-20.741507799546387,-0.15242663869402037,0.02096211430701464,0.9880924600361154,0.12588716977681966,0.006217569260923529,0.992025081496465,49.5018164131262,55.25684264072139,3.2584115771123217,4.261323375663501,2964949.0,1744328.125,1710958444544.0,-384.0,0.23543837666511536,112.0,0.06866952776908875,-15760.0,9.6627836227417,2765.0,4026.974365234375,2531.0,1854.21240234375,52568.0,823.9436645507812,1.2136752605438232
68484.5743363,0.8931639194488525,0.45570085672015326,0.3619573228477989,-12.38609706500657,15.467706519622297,196.99215895595574,21.95009470178155,11.251674379594292,-25.465553470318525,-39.91072224637096,13.779526885925147,-20.741507799546387,-0.15242663869402037,0.02096211430701464,0.9880924600361154,0.1253228760451966,0.005456766085043922,0.9921010031461784,49.5018164131262,55.0578361327217,3.2584115771123217,4.245355810465941,2965205.0,1744336.0,1710958444544.0,-368.0,0.22562845051288605,128.0,0.07847946137189865,-15696.0,9.623543739318848,2780.0,4048.820556640625,2552.0,1869.5970458984375,52567.0,824.2451782226562,1.2132312059402466
68484.6753059,0.9157776832580566,0.455518664282483,0.36129591779055803,-12.424011252229533,15.561178887127337,196.66060816669108,21.95009470178155,11.251674379594292,-25.465553470318525,-39.91072224637096,13.779526885925147,-20.741507799546387,-0.1527948539309948,0.02184275154533793,0.9880165114091639,0.1253228760451966,0.005456766085043922,0.9921010031461784,49.34036117579053,55.0578361327217,3.247837446791201,4.245355810465941,2965461.0,1744343.75,1710958444544.0,-352.0,0.21581850945949554,144.0,0.08828939497470856,-15728.0,9.643163681030273,2767.0,4029.88720703125,2543.0,1863.003662109375,52567.0,824.2451782226562,1.2132312059402466
68484.7763504,0.9206429421901703,0.4555187707698877,0.36114968236446465,-12.424875445802446,15.588520696006015,196.67291839988957,21.95009470178155,11.251674379594292,-25.465553470318525,-39.91072224637096,13.779526885925147,-20.741507799546387,-0.1527948539309948,0.02184275154533793,0.9880165114091639,0.12531674381895067,0.005701599123209957,0.9921004009101365,49.34036117579053,55.133697902551226,3.247837446791201,4.251427049937685,2965717.0,1744351.5,1710958444544.0,-416.0,0.25505825877189636,128.0,0.07847946137189865,-15712.0,9.633354187011719,2775.0,4041.53857421875,2554.0,1871.062255859375,52567.0,824.2451782226562,1.2132312059402466
68484.8774075,0.9546358585357666,0.45536642636368463,0.36006823571995084,-12.455477811398891,15.7597434134562,196.37356126926093,21.95009470178155,11.251674379594292,-25.465553470318525,-39.91072224637096,13.779526885925147,-20.741507799546387,-0.1530952858146598,0.023423610394983828,0.9879337872233096,0.12531674381895067,0.005701599123209957,0.9921004009101365,49.27344330872976,55.133697902551226,3.2437157170636546,4.251427049937685,2965973.0,1744359.375,1710958444544.0,-400.0,0.24524831771850586,144.0,0.08828939497470856,-15712.0,9.633354187011719,2773.0,4038.625732421875,2553.0,1870.3297119140625,52567.0,824.2451782226562,1.2132312059402466
68484.9783894,0.9084604382514954,0.455244852805599,0.36053397972639245,-12.518993688932813,15.7075569975969,196.76817544983737,21.95009470178155,11.251674379594292,-25.465553470318525,-39.91072224637096,13.779526885925147,-20.741507799546387,-0.1530952858146598,0.023423610394983828,0.9879337872233096,0.12479699153286984,0.005180146157222076,0.992168774448246,49.27344330872976,55.03362410393466,3.2437157170636546,4.244329353934105,2966229.0,1744367.25,1710958444544.0,-432.0,0.2648681700229645,96.0,0.05885959416627884,-15712.0,9.633354187011719,2778.0,4045.90771484375,2561.0,1876.1904296875,52566.0,824.5469360351562,1.2127872705459595
68485.0793746,0.9084604382514954,0.4554435965635643,0.3611094782677886,-12.477484387838798,15.631648308340353,197.1239724092448,21.95009470178155,11.251674379594292,-25.465553470318525,-39.91072224637096,13.779526885925147,-20.741507799546387,-0.15269166999401415,0.022696476577902372,0.9880132204911977,0.12479699153286984,0.005180146157222076,0.992168774448246,49.35566411943371,55.03362410393466,3.249204479451387,4.244329353934105,2966485.0,1744375.0,1710958444544.0,-448.0,0.274678111076355,128.0,0.07847946137189865,-15792.0,9.682403564453125,2767.0,4029.88720703125,2548.0,1866.6666259765625,52567.0,824.2451782226562,1.2132312059402466
68485.1804802,0.957862377166748,0.4552436032391113,0.36020534027704976,-12.593285526146673,15.859566876024477,197.9251869844548,21.95009470178155,11.251674379594292,-25.465553470318525,-39.91072224637096,13.779526885925147,-20.741507799546387,-0.15269166999401415,0.022696476577902372,0.9880132204911977,0.12386575773628511,0.007122575207085606,0.9922734214836328,49.35566411943371,55.227978919949855,3.249204479451387,4.258639970307129,2966741.0,1744382.75,1710958444544.0,-448.0,0.274678111076355,80.0,0.04904966428875923,-15728.0,9.643163681030273,2776.0,4042.994873046875,2551.0,1868.864501953125,52566.0,824.5469360351562,1.2127872705459595
68485.281376,0.9451557695865631,0.455762742034126,0.3616282089204077,-12.484068824666956,15.674591576312702,198.8640457057415,21.95009470178155,11.251674379594292,-25.465553470318525,-39.91072224637096,13.779526885925147,-20.741507799546387,-0.1516347827523256,0.02092417078428199,0.9882150938619816,0.12386575773628511,0.007122575207085606,0.9922734214836328,49.3586178435567,55.227978919949855,3.2491185983207362,4.258639970307129,2966997.0,1744390.625,1710958444544.0,-448.0,0.274678111076355,96.0,0.05885959416627884,-15680.0,9.613734245300293,2772.0,4037.169189453125,2546.0,1865.201416015625,52566.0,824.5469360351562,1.2127872705459595
68485.3818136,0.9206291437149048,0.45553676408824045,0.3618283382590146,-12.608145162518793,15.702232238821157,199.67525812754013,21.95009470178155,11.251674379594292,-25.465553470318525,-39.91072224637096,13.779526885925147,-20.741507799546387,-0.1516347827523256,0.02092417078428199,0.9882150938619816,0.12286846527488586,0.007267679816448855,0.9923963528102467,49.3586178435567,55.15921469413078,3.2491185983207362,4.252833722168979,2967253.0,1744398.5,1710958444544.0,-480.0,0.2942979633808136,96.0,0.05885959416627884,-15728.0,9.643163681030273,2787.0,4059.015380859375,2578.0,1888.6446533203125,52565.0,824.8489379882812,1.2123432159423828
68485.482233,0.9161534011363983,0.4559459901000699,0.3620486733493432,-12.519651573924117,15.71711017929723,200.38676634691532,21.95009470178155,11.251674379594292,-25.465553470318525,-39.91072224637096,13.779526885925147,-20.741507799546387,-0.1507878746804312,0.02096919293724369,0.9883437204722451,0.12286846527488586,0.007267679816448855,0.9923963528102467,49.45758638763331,55.15921469413078,3.2552963454991426,4.252833722168979,2967509.0,1744406.25,1710958444544.0,-480.0,0.2942979633808136,112.0,0.06866952776908875,-15760.0,9.6627836227417,2775.0,4041.53857421875,2571.0,1883.5164794921875,52567.0,824.2451782226562,1.2132312059402466
68485.5832544,0.9352964162826538,0.4564423565571717,0.3604748358909944,-12.255443845348253,15.870938313595047,198.70204897680637,21.95009470178155,11.251674379594292,-25.465553470318525,-39.91072224637096,13.779526885925147,-20.741507799546387,-0.1507878746804312,0.02096919293724369,0.9883437204722451,0.12500597572623587,0.008852394359640766,0.9921164957538168,49.45758638763331,55.07263099187586,3.2552963454991426,4.246079761671382,2967765.0,1744414.0,1710958444544.0,-480.0,0.2942979633808136,112.0,0.06866952776908875,-15744.0,9.652973175048828,2780.0,4048.820556640625,2570.0,1882.783935546875,52567.0,824.2451782226562,1.2132312059402466
68485.6853263,0.9289991557598114,0.4549995527685512,0.35982643762885513,-12.56546953785955,15.794658091692536,196.25950166789374,21.95009470178155,11.251674379594292,-25.465553470318525,-39.91072224637096,13.779526885925147,-20.741507799546387,-0.1537699182867335,0.020601910663476056,0.9878918835110984,0.12500597572623587,0.008852394359640766,0.9921164957538168,49.52670387116819,55.07263099187586,3.2594520411738115,4.246079761671382,2968021.0,1744421.875,1710958444544.0,-448.0,0.274678111076355,96.0,0.05885959416627884,-15760.0,9.6627836227417,2777.0,4044.451171875,2569.0,1882.05126953125,52567.0,824.2451782226562,1.2132312059402466
68485.786294,0.9412064850330353,0.45442613205343213,0.35862562425512323,-12.890528259695591,16.188890032988986,198.431344926031,21.95009470178155,11.251674379594292,-25.465553470318525,-39.91072224637096,13.779526885925147,-20.741507799546387,-0.1537699182867335,0.020601910663476056,0.9878918835110984,0.12239575985860775,0.012091692902208306,0.9924077130551701,49.52670387116819,55.165167521497075,3.2594520411738115,4.25154956744916,2968277.0,1744429.75,1710958444544.0,-432.0,0.2648681700229645,128.0,0.07847946137189865,-15776.0,9.672593116760254,2778.0,4045.90771484375,2568.0,1881.3187255859375,52566.0,824.5469360351562,1.2127872705459595
68485.8874334,0.9575556814670563,0.4548590367392905,0.3580871290306722,-12.796934775819135,16.344463058137762,199.1406857548292,21.95009470178155,11.251674379594292,-25.465553470318525,-39.91072224637096,13.779526885925147,-20.741507799546387,-0.1528653497266698,0.021887006904264324,0.9880046274090601,0.12239575985860775,0.012091692902208306,0.9924077130551701,49.178769131154986,55.165167521497075,3.236869941754171,4.25154956744916,2968533.0,1744437.5,1710958444544.0,-432.0,0.2648681700229645,112.0,0.06866952776908875,-15744.0,9.652973175048828,2767.0,4029.88720703125,2552.0,1869.5970458984375,52567.0,824.2451782226562,1.2132312059402466
68485.9883362,0.9928695857524872,0.4551585395124332,0.35738326965741085,-12.634735481784961,16.387173214885237,198.10796719710805,21.95009470178155,11.251674379594292,-25.465553470318525,-39.91072224637096,13.779526885925147,-20.741507799546387,-0.1528653497266698,0.021887006904264324,0.9880046274090601,0.12369994583115425,0.012630155337740343,0.9922392869552757,49.178769131154986,55.10073325917268,3.236869941754171,4.245676442307264,2968789.0,1744445.25,1710958444544.0,-416.0,0.25505825877189636,128.0,0.07847946137189865,-15728.0,9.643163681030273,2765.0,4026.974365234375,2535.0,1857.142822265625,52567.0,824.2451782226562,1.2132312059402466
68486.0894403,0.9798926413059235,0.45416578687125375,0.35592684960871457,-12.843270385286097,16.508893795686383,196.3872422514737,21.95009470178155,11.251674379594292,-25.465553470318525,-39.91072224637096,13.779526885925147,-20.741507799546387,-0.15490080644063928,0.023246907868001515,0.987656479469768,0.12369994583115425,0.012630155337740343,0.9922392869552757,49.33265657825065,55.10073325917268,3.2470049546818767,4.245676442307264,2969045.0,1744453.125,1710958444544.0,-464.0,0.2844880521297455,112.0,0.06866952776908875,-15728.0,9.643163681030273,2780.0,4048.820556640625,2554.0,1871.062255859375,52567.0,824.2451782226562,1.2132312059402466
68486.1905632,0.9380480647087097,0.4536537675172103,0.3566702677646445,-13.124449041817957,16.524691146521114,198.17389992208655,21.95009470178155,11.251674379594292,-25.465553470318525,-39.91072224637096,13.779526885925147,-20.741507799546387,-0.15490080644063928,0.023246907868001515,0.987656479469768,0.12144539226886919,0.012486287884065677,0.9925195762863,49.33265657825065,54.813977306038694,3.2470049546818767,4.222793187049481,2969301.0,1744461.0,1710958444544.0,-448.0,0.274678111076355,128.0,0.07847946137189865,-15728.0,9.643163681030273,2787.0,4059.015380859375,2582.0,1891.5750732421875,52565.0,824.8489379882812,1.2123432159423828
68486.2913961,0.9345073699951172,0.4537960742266994,0.3570510021318485,-13.095178311081455,16.476527527294124,198.4306065778867,21.95009470178155,11.251674379594292,-25.465553470318525,-39.91072224637096,13.779526885925147,-20.741507799546387,-0.1546114796383989,0.022776331246345902,0.9877127766202995,0.12144539226886919,0.012486287884065677,0.9925195762863,49.515166755277576,54.813977306038694,3.2582717350946035,4.222793187049481,2969557.0,1744468.75,1710958444544.0,-448.0,0.274678111076355,96.0,0.05885959416627884,-15744.0,9.652973175048828,2775.0,4041.53857421875,2573.0,1884.981689453125,52567.0,824.2451782226562,1.2132312059402466
68486.3923923,0.9107521772384644,0.4531417429714484,0.3582418438521974,-13.460474257651267,16.450446552927232,200.74552747745963,21.95009470178155,11.251674379594292,-25.465553470318525,-39.91072224637096,13.779526885925147,-20.741507799546387,-0.1546114796383989,0.022776331246345902,0.9877127766202995,0.11856710793718349,0.01189636087322697,0.992874774336314,49.515166755277576,54.82329958007525,3.2582717350946035,4.223279584073581,2969813.0,1744476.5,1710958444544.0,-464.0,0.2844880521297455,96.0,0.05885959416627884,-15744.0,9.652973175048828,2773.0,4038.625732421875,2561.0,1876.1904296875,52567.0,824.2451782226562,1.2132312059402466
68486.4930823,0.909102737903595,0.453592649804677,0.358259085463852,-13.365063494762977,16.510544019733743,201.52682188954878,21.95009470178155,11.251674379594292,-25.465553470318525,-39.91072224637096,13.779526885925147,-20.741507799546387,-0.15367698562749835,0.023189270278084605,0.98784899748515,0.11856710793718349,0.01189636087322697,0.992874774336314,49.27639618675296,54.82329958007525,3.24250154626273,4.223279584073581,2970069.0,1744484.375,1710958444544.0,-432.0,0.2648681700229645,128.0,0.07847946137189865,-15824.0,9.70202350616455,2770.0,4034.25634765625,2550.0,1868.1318359375,52566.0,824.5469360351562,1.2127872705459595
68486.5943837,0.9747025072574615,0.45357050236719515,0.3579431422167604,-13.380011913544745,16.578170456703614,201.63833478131568,21.95009470178155,11.251674379594292,-25.465553470318525,-39.91072224637096,13.779526885925147,-20.741507799546387,-0.15367698562749835,0.023189270278084605,0.98784899748515,0.11845343944163307,0.012475130620705285,0.9928812385177009,49.27639618675296,55.17338486038079,3.24250154626273,4.248924719758957,2970325.0,1744492.25,1710958444544.0,-432.0,0.2648681700229645,112.0,0.06866952776908875,-15776.0,9.672593116760254,2772.0,4037.169189453125,2545.0,1864.4688720703125,52566.0,824.5469360351562,1.2127872705459595
68486.6953101,0.9732308685779572,0.4534460470132663,0.3579251787600144,-13.406391702676983,16.56384719872692,201.42126138400283,21.95009470178155,11.251674379594292,-25.465553470318525,-39.91072224637096,13.779526885925147,-20.741507799546387,-0.1539348631394007,0.023096372060507013,0.9878110221636002,0.11845343944163307,0.012475130620705285,0.9928812385177009,49.30418868861254,55.17338486038079,3.2442056702147117,4.248924719758957,2970581.0,1744500.0,1710958444544.0,-432.0,0.2648681700229645,96.0,0.05885959416627884,-15728.0,9.643163681030273,2770.0,4034.25634765625,2541.0,1861.5384521484375,52567.0,824.2451782226562,1.2132312059402466
68486.796411,0.9026428759098053,0.45291748147814725,0.3605067918755559,-13.696679455818863,16.22928196882006,203.19423925334564,21.95009470178155,11.251674379594292,-25.465553470318525,-39.91072224637096,13.779526885925147,-20.741507799546387,-0.1539348631394007,0.023096372060507013,0.9878110221636002,0.1161964620863268,0.009272146441880184,0.9931829687922469,49.30418868861254,55.18136188386869,3.2442056702147117,4.249191127270777,2970837.0,1744507.75,1710958444544.0,-448.0,0.274678111076355,64.0,0.039239730685949326,-15760.0,9.6627836227417,2776.0,4042.994873046875,2549.0,1867.3992919921875,52566.0,824.5469360351562,1.2127872705459595
68486.8973488,0.923583447933197,0.452726136699527,0.3607680826696661,-13.737662542596325,16.15501781630102,202.8692305439934,21.95009470178155,11.251674379594292,-25.465553470318525,-39.91072224637096,13.779526885925147,-20.741507799546387,-0.15433538140054365,0.022490544995304975,0.9877625045696778,0.1161964620863268,0.009272146441880184,0.9931829687922469,49.26839027255955,55.18136188386869,3.2416974006144192,4.249191127270777,2971093.0,1744515.625,1710958444544.0,-464.0,0.2844880521297455,144.0,0.08828939497470856,-15712.0,9.633354187011719,2772.0,4037.169189453125,2544.0,1863.7362060546875,52566.0,824.5469360351562,1.2127872705459595
68486.9984671,0.9570209980010986,0.45231993665899706,0.3609011697766764,-13.977633975778394,16.254261356503616,204.4204329160674,21.95009470178155,11.251674379594292,-25.465553470318525,-39.91072224637096,13.779526885925147,-20.741507799546387,-0.15433538140054365,0.022490544995304975,0.9877625045696778,0.11437250447188356,0.009922726644015657,0.9933883780862233,49.26839027255955,54.82263922054848,3.2416974006144192,4.22085535133814,2971349.0,1744523.5,1710958444544.0,-432.0,0.2648681700229645,80.0,0.04904966428875923,-15776.0,9.672593116760254,2752.0,4008.041015625,2501.0,1832.234375,52567.0,824.2451782226562,1.2132312059402466
68487.0994755,0.9395425319671631,0.4515388781720328,0.3613807296691548,-14.14204246248726,16.057930472611346,203.05826610525153,21.95009470178155,11.251674379594292,-25.465553470318525,-39.91072224637096,13.779526885925147,-20.741507799546387,-0.15596111260555898,0.0209602505330703,0.9875407835894309,0.11437250447188356,0.009922726644015657,0.9933883780862233,49.465331559785824,54.82263922054848,3.2543602395607163,4.22085535133814,2971605.0,1744531.25,1710958444544.0,-432.0,0.2648681700229645,144.0,0.08828939497470856,-15824.0,9.70202350616455,2770.0,4034.25634765625,2520.0,1846.15380859375,52566.0,824.5469360351562,1.2127872705459595
68487.2000702,0.9133718907833099,0.4512617051044317,0.36288204036149085,-14.29733986203483,15.851041576900982,203.98754362735679,21.95009470178155,11.251674379594292,-25.465553470318525,-39.91072224637096,13.779526885925147,-20.741507799546387,-0.15596111260555898,0.0209602505330703,0.9875407835894309,0.11319016620516816,0.007993387263070376,0.9935411878903205,49.465331559785824,54.898562419228256,3.2543602395607163,4.226759958237773,2971861.0,1744539.0,1710958444544.0,-384.0,0.23543837666511536,144.0,0.08828939497470856,-15792.0,9.682403564453125,2776.0,4042.994873046875,2539.0,1860.0732421875,52566.0,824.5469360351562,1.2127872705459595
68487.3003662,0.9366789162158966,0.4501755210338553,0.3624365694468613,-14.519482131408022,15.78528654060758,202.0559131429228,21.95009470178155,11.251674379594292,-25.465553470318525,-39.91072224637096,13.779526885925147,-20.741507799546387,-0.15820180044025853,0.020622084016426522,0.9871914302648094,0.11319016620516816,0.007993387263070376,0.9935411878903205,49.51148454587235,54.898562419228256,3.2573388591529264,4.226759958237773,2972117.0,1744546.875,1710958444544.0,-400.0,0.24524831771850586,112.0,0.06866952776908875,-15792.0,9.682403564453125,2773.0,4038.625732421875,2545.0,1864.4688720703125,52566.0,824.5469360351562,1.2127872705459595
68487.4014129,0.9375998079776764,0.44960313382895445,0.36406941479710586,-14.855572095967283,15.641021726424004,204.108681836284,21.95009470178155,11.251674379594292,-25.465553470318525,-39.91072224637096,13.779526885925147,-20.741507799546387,-0.15820180044025853,0.020622084016426522,0.9871914302648094,0.1106713808399941,0.006480566725977294,0.9938359259545205,49.51148454587235,54.995656971955455,3.2573388591529264,4.233210046677268,2972373.0,1744554.75,1710958444544.0,-416.0,0.25505825877189636,128.0,0.07847946137189865,-15760.0,9.6627836227417,2758.0,4016.779541015625,2518.0,1844.6885986328125,52567.0,824.2451782226562,1.2132312059402466
68487.5024224,0.9217939674854279,0.4493211663444477,0.3639508577701611,-14.91235960363621,15.624918317750163,203.60348398182535,21.95009470178155,11.251674379594292,-25.465553470318525,-39.91072224637096,13.779526885925147,-20.741507799546387,-0.1587828354287369,0.02053974673579962,0.9870998581588593,0.1106713808399941,0.006480566725977294,0.9938359259545205,49.33436671165961,54.995656971955455,3.2455285171926063,4.233210046677268,2972629.0,1744562.5,1710958444544.0,-416.0,0.25505825877189636,128.0,0.07847946137189865,-15728.0,9.643163681030273,2770.0,4034.25634765625,2528.0,1852.0146484375,52567.0,824.2451782226562,1.2132312059402466
68487.6033659,0.9841941595077515,0.4492315527439237,0.3644243874209909,-14.963845585254079,15.559798501887332,203.90653417388774,21.95009470178155,11.251674379594292,-25.465553470318525,-39.91072224637096,13.779526885925147,-20.741507799546387,-0.1587828354287369,0.02053974673579962,0.9870998581588593,0.1102868114029846,0.005876713409911795,0.9938824294000073,49.33436671165961,55.06424067650322,3.2455285171926063,4.238228760604957,2972885.0,1744570.25,1710958444544.0,-416.0,0.25505825877189636,96.0,0.05885959416627884,-15760.0,9.6627836227417,2776.0,4042.994873046875,2543.0,1863.003662109375,52566.0,824.5469360351562,1.2127872705459595
68487.7040308,0.9941328763961792,0.44995656925212124,0.36567539326605913,-14.819675251398515,15.426355337263319,205.25845481595474,21.95009470178155,11.251674379594292,-25.465553470318525,-39.91072224637096,13.779526885925147,-20.741507799546387,-0.1573010271307487,0.019230920606618098,0.987363437927612,0.1102868114029846,0.005876713409911795,0.9938824294000073,49.38804886686689,55.06424067650322,3.248951958535807,4.238228760604957,2973141.0,1744578.125,1710958444544.0,-416.0,0.25505825877189636,128.0,0.07847946137189865,-15712.0,9.633354187011719,2767.0,4029.88720703125,2538.0,1859.3406982421875,52567.0,824.2451782226562,1.2132312059402466
68487.8043877,0.9574624598026276,0.4498930086957883,0.3663855750678843,-14.853380131147158,15.306399866199744,205.44013455996995,21.95009470178155,11.251674379594292,-25.465553470318525,-39.91072224637096,13.779526885925147,-20.741507799546387,-0.1573010271307487,0.019230920606618098,0.987363437927612,0.11003212711718591,0.004817083418126012,0.993916358004742,49.38804886686689,55.0383591790541,3.248951958535807,4.235245207379654,2973397.0,1744586.0,1710958444544.0,-432.0,0.2648681700229645,144.0,0.08828939497470856,-15760.0,9.6627836227417,2779.0,4047.364013671875,2560.0,1875.4578857421875,52566.0,824.5469360351562,1.2127872705459595
68487.9053661,0.9308505356311798,0.44913586462390526,0.3661240771039217,-15.006374834618756,15.25484154045251,204.07490480887412,21.95009470178155,11.251674379594292,-25.465553470318525,-39.91072224637096,13.779526885925147,-20.741507799546387,-0.1588629428600205,0.018920788129262737,0.9871193287350933,0.11003212711718591,0.004817083418126012,0.993916358004742,49.19105806126682,55.0383591790541,3.2356681004608996,4.235245207379654,2973653.0,1744593.75,1710958444544.0,-432.0,0.2648681700229645,80.0,0.04904966428875923,-15728.0,9.643163681030273,2769.0,4032.800048828125,2547.0,1865.93408203125,52567.0,824.2451782226562,1.2132312059402466
68488.0074211,0.8864056169986725,0.4481914125836136,0.368377562182582,-15.582523768286771,15.091157949742911,207.59903329444015,21.95009470178155,11.251674379594292,-25.465553470318525,-39.91072224637096,13.779526885925147,-20.741507799546387,-0.1588629428600205,0.018920788129262737,0.9871193287350933,0.10583516535104803,0.0030531066328624195,0.9943790003389072,49.19105806126682,54.71173355520276,3.2356681004608996,4.210418058891108,2973909.0,1744601.5,1710958444544.0,-400.0,0.24524831771850586,128.0,0.07847946137189865,-15680.0,9.613734245300293,2776.0,4042.994873046875,2552.0,1869.5970458984375,52566.0,824.5469360351562,1.2127872705459595
68488.1103931,0.9022017419338226,0.4489979840302437,0.3700624528880174,-15.424230609339869,14.881125541693685,209.16948462259563,21.95009470178155,11.251674379594292,-25.465553470318525,-39.91072224637096,13.779526885925147,-20.741507799546387,-0.15721664695139748,0.01698541249506337,0.9874180582122914,0.10583516535104803,0.0030531066328624195,0.9943790003389072,49.37552314171185,54.71173355520276,3.2472011002188372,4.210418058891108,2974165.0,1744609.375,1710958444544.0,-400.0,0.24524831771850586,144.0,0.08828939497470856,-15712.0,9.633354187011719,2765.0,4026.974365234375,2536.0,1857.87548828125,52567.0,824.2451782226562,1.2132312059402466
68488.2106544,0.9259330928325653,0.4488879050800888,0.3705634895285872,-15.490782101819615,14.81357051877912,209.569141575914,21.95009470178155,11.251674379594292,-25.465553470318525,-39.91072224637096,13.779526885925147,-20.741507799546387,-0.15721664695139748,0.01698541249506337,0.9874180582122914,0.10535689725446289,0.0024436434760620324,0.9944314721525432,49.37552314171185,54.868048010407804,3.2472011002188372,4.222397502489802,2974421.0,1744617.25,1710958444544.0,-400.0,0.24524831771850586,144.0,0.08828939497470856,-15744.0,9.652973175048828,2779.0,4047.364013671875,2559.0,1874.7252197265625,52566.0,824.5469360351562,1.2127872705459595
68488.3113691,0.9293463230133057,0.448536521553294,0.3710098890290373,-15.563084303521176,14.684001124392324,208.93644192391963,21.95009470178155,11.251674379594292,-25.465553470318525,-39.91072224637096,13.779526885925147,-20.741507799546387,-0.15795095941687107,0.015929780548960142,0.9873184574953271,0.10535689725446289,0.0024436434760620324,0.9944314721525432,49.35985977784963,54.868048010407804,3.2468777150607324,4.222397502489802,2974677.0,1744625.0,1710958444544.0,-368.0,0.22562845051288605,144.0,0.08828939497470856,-15600.0,9.56468391418457,2769.0,4032.800048828125,2547.0,1865.93408203125,52566.0,824.5469360351562,1.2127872705459595
68488.4134058,0.9655356407165527,0.4489767040677381,0.3701698027432726,-15.288995735029426,14.723481170157577,207.23955405787444,21.95009470178155,11.251674379594292,-25.465553470318525,-39.91072224637096,13.779526885925147,-20.741507799546387,-0.15795095941687107,0.015929780548960142,0.9873184574953271,0.10732539201100373,0.002917030483788018,0.9942196694709078,49.35985977784963,54.871049267443354,3.2468777150607324,4.222343195287891,2974933.0,1744632.75,1710958444544.0,-368.0,0.22562845051288605,96.0,0.05885959416627884,-15648.0,9.594114303588867,2776.0,4042.994873046875,2551.0,1868.864501953125,52566.0,824.5469360351562,1.2127872705459595
68488.5143017,0.9788053333759308,0.4488416770927208,0.37248027257513516,-15.322262221136711,14.275736381468004,207.1017326786165,21.95009470178155,11.251674379594292,-25.465553470318525,-39.91072224637096,13.779526885925147,-20.741507799546387,-0.15826272145803347,0.012086299989350157,0.9873230638191658,0.10732539201100373,0.002917030483788018,0.9942196694709078,49.42731511054441,54.871049267443354,3.251975858603428,4.222343195287891,2975189.0,1744640.625,1710958444544.0,-368.0,0.22562845051288605,128.0,0.07847946137189865,-15744.0,9.652973175048828,2772.0,4037.169189453125,2546.0,1865.201416015625,52566.0,824.5469360351562,1.2127872705459595
68488.61539,0.9482257962226868,0.4472267114739621,0.3754874753871176,-16.35161532746687,14.129576582803422,213.46832933174872,21.95009470178155,11.251674379594292,-25.465553470318525,-39.91072224637096,13.779526885925147,-20.741507799546387,-0.15826272145803347,0.012086299989350157,0.9873230638191658,0.1000767061609244,0.0012928786504181559,0.9949788848758426,49.42731511054441,55.241690266617674,3.251975858603428,4.2499400263695986,2975445.0,1744648.5,1710958444544.0,-416.0,0.25505825877189636,144.0,0.08828939497470856,-15712.0,9.633354187011719,2758.0,4016.779541015625,2517.0,1843.9560546875,52567.0,824.2451782226562,1.2132312059402466
68488.7165471,0.8827098309993744,0.44498163899011284,0.37657353862514154,-16.79379568419062,13.64702198391155,209.26635471156618,21.95009470178155,11.251674379594292,-25.465553470318525,-39.91072224637096,13.779526885925147,-20.741507799546387,-0.16291970870970718,0.008201776697717688,0.9866052398872333,0.1000767061609244,0.0012928786504181559,0.9949788848758426,49.41789287339416,55.241690266617674,3.252690673121823,4.2499400263695986,2975701.0,1744656.25,1710958444544.0,-432.0,0.2648681700229645,208.0,0.12752912938594818,-15728.0,9.643163681030273,2771.0,4035.712890625,2535.0,1857.142822265625,52567.0,824.2451782226562,1.2132312059402466
68488.8174644,0.9049338400363922,0.44490784094658553,0.374704318597159,-16.860578285923623,14.038449678214473,209.7626015222051,21.95009470178155,11.251674379594292,-25.465553470318525,-39.91072224637096,13.779526885925147,-20.741507799546387,-0.16291970870970718,0.008201776697717688,0.9866052398872333,0.09964300173434812,0.0046041439522305746,0.9950125999523001,49.41789287339416,54.94313487689601,3.252690673121823,4.226180883343112,2975957.0,1744664.0,1710958444544.0,-432.0,0.2648681700229645,208.0,0.12752912938594818,-15792.0,9.682403564453125,2781.0,4050.27685546875,2558.0,1873.99267578125,52567.0,824.2451782226562,1.2132312059402466
68488.9184853,0.938088983297348,0.44306719735506317,0.3734042410840135,-17.203793317141056,14.056627985874428,206.31716240457112,21.985652890134038,11.28452814225515,-25.364741116648105,-39.91072224637096,13.779526885925147,-20.741507799546387,-0.16690550966727924,0.008406820811878428,0.9859370548906978,0.09964300173434812,0.0046041439522305746,0.9950125999523001,49.15232441878989,54.94313487689601,3.2184671019080837,4.226180883343112,2976213.0,1744671.875,1710958444544.0,-384.0,0.23543837666511536,128.0,0.07847946137189865,-15744.0,9.652973175048828,2779.0,4047.364013671875,2570.0,1882.783935546875,52566.0,824.5469360351562,1.2127872705459595
68489.019369,0.9614694118499756,0.4428982714488128,0.37585561375009,-17.294906179014255,13.62260278458611,206.75543067026456,21.985652890134038,11.28452814225515,-25.364741116648105,-39.91072224637096,13.779526885925147,-20.741507799546387,-0.16690550966727924,0.008406820811878428,0.9859370548906978,0.0989848297468428,0.0008377662155078593,0.9950885898389936,49.15232441878989,55.01825808939658,3.2184671019080837,4.23279174228811,2976469.0,1744679.75,1710958444544.0,-448.0,0.274678111076355,128.0,0.07847946137189865,-15760.0,9.6627836227417,2780.0,4048.820556640625,2569.0,1882.05126953125,52566.0,824.5469360351562,1.2127872705459595
68489.1203609,0.9938302338123322,0.4444255338614071,0.37630898270035185,-17.00954933307036,13.719518018214139,209.58574847939218,21.985652890134038,11.28452814225515,-25.364741116648105,-39.91072224637096,13.779526885925147,-20.741507799546387,-0.16376743740204097,0.009126415120317538,0.9864567577921601,0.0989848297468428,0.0008377662155078593,0.9950885898389936,49.07688433697739,55.01825808939658,3.21367584531449,4.23279174228811,2976725.0,1744687.5,1710958444544.0,-448.0,0.274678111076355,80.0,0.04904966428875923,-15808.0,9.69221305847168,2769.0,4032.800048828125,2553.0,1870.3297119140625,52567.0,824.2451782226562,1.2132312059402466
68489.2213906,0.9957221150398254,0.4447043307698455,0.3754881992496788,-16.829337996841105,13.8061681854829,208.52292685051523,21.985652890134038,11.28452814225515,-25.364741116648105,-39.91072224637096,13.779526885925147,-20.741507799546387,-0.16376743740204097,0.009126415120317538,0.9864567577921601,0.10022969850097971,0.0016245360731832203,0.9949629985185126,49.07688433697739,55.285377586022264,3.21367584531449,4.2533322555728565,2976981.0,1744695.25,1710958444544.0,-448.0,0.274678111076355,144.0,0.08828939497470856,-15728.0,9.643163681030273,2778.0,4045.90771484375,2561.0,1876.1904296875,52567.0,824.2451782226562,1.2132312059402466
68489.3228346,0.9269232749938965,0.44624423908610683,0.3766346677144129,-16.534925267880105,13.77616386656356,211.45946037842316,21.985652890134038,11.28452814225515,-25.364741116648105,-39.91072224637096,13.779526885925147,-20.741507799546387,-0.16060156960865707,0.008745041600313377,0.9869805773603878,0.10022969850097971,0.0016245360731832203,0.9949629985185126,49.30797861269517,55.285377586022264,3.228871337792338,4.2533322555728565,2977237.0,1744703.125,1710958444544.0,-496.0,0.3041079044342041,112.0,0.06866952776908875,-15712.0,9.633354187011719,2781.0,4050.27685546875,2572.0,1884.2490234375,52567.0,824.2451782226562,1.2132312059402466
68489.4233056,0.9605745673179626,0.4464971825551027,0.37657577459463387,-16.485085677832224,13.818333040213645,211.93762112857956,21.985652890134038,11.28452814225515,-25.364741116648105,-39.91072224637096,13.779526885925147,-20.741507799546387,-0.16007696567722285,0.00908073907709627,0.9870627666148627,0.10022969850097971,0.0016245360731832203,0.9949629985185126,49.20174369614404,55.285377586022264,3.2218196091462254,4.2533322555728565,2977493.0,1744711.0,1710958444544.0,-416.0,0.25505825877189636,144.0,0.08828939497470856,-15664.0,9.603923797607422,2780.0,4048.820556640625,2570.0,1882.783935546875,52566.0,824.5469360351562,1.2127872705459595
68489.5249966,0.9474422931671143,0.44722689154162126,0.3738777121686008,-16.025037974893454,14.154420938679877,209.18684983151513,21.985652890134038,11.28452814225515,-25.364741116648105,-39.91072224637096,13.779526885925147,-20.741507799546387,-0.16007696567722285,0.00908073907709627,0.9870627666148627,0.10344600813270098,0.00461815595294821,0.9946243492077819,49.20174369614404,55.05437111890057,3.2218196091462254,4.236014511414844,2977749.0,1744718.75,1710958444544.0,-416.0,0.25505825877189636,128.0,0.07847946137189865,-15664.0,9.603923797607422,2772.0,4037.169189453125,2555.0,1871.794921875,52567.0,824.2451782226562,1.2132312059402466
68489.6257339,0.9331764578819275,0.4469429676185593,0.37558042774330347,-16.196978708885617,13.894705615645908,210.1832642507665,21.985652890134038,11.28452814225515,-25.364741116648105,-39.91072224637096,13.779526885925147,-20.741507799546387,-0.16007696567722285,0.00908073907709627,0.9870627666148627,0.10222716625753513,0.002353263661695653,0.9947582965872126,49.20174369614404,55.246328871893006,3.2218196091462254,4.251183333429585,2978005.0,1744726.5,1710958444544.0,-416.0,0.25505825877189636,96.0,0.05885959416627884,-15760.0,9.6627836227417,2776.0,4042.994873046875,2555.0,1871.794921875,52566.0,824.5469360351562,1.2127872705459595
68489.726222,0.9480877816677094,0.44701570905647925,0.37551132861037584,-16.18240649972227,13.916701694160649,210.31654357448411,21.985652890134038,11.28452814225515,-25.364741116648105,-39.91072224637096,13.779526885925147,-20.741507799546387,-0.15992541768857935,0.00926134646028435,0.987085653952521,0.10222716625753513,0.002353263661695653,0.9947582965872126,49.10339062501382,55.246328871893006,3.2159479685561108,4.251183333429585,2978261.0,1744734.375,1710958444544.0,-464.0,0.2844880521297455,176.0,0.10790925472974777,-15760.0,9.6627836227417,2771.0,4035.712890625,2552.0,1869.5970458984375,52566.0,824.5469360351562,1.2127872705459595
68489.8264233,0.9683240056037903,0.4468725621556035,0.37487474952099287,-16.20893009623802,14.019528590983644,210.01774020660758,21.985652890134038,11.28452814225515,-25.364741116648105,-39.91072224637096,13.779526885925147,-20.741507799546387,-0.16021304089504768,0.010149953357806052,0.9870302730787928,0.10222716625753513,0.002353263661695653,0.9947582965872126,49.26888151147928,55.246328871893006,3.227037131866811,4.251183333429585,2978517.0,1744742.25,1710958444544.0,-416.0,0.25505825877189636,176.0,0.10790925472974777,-15712.0,9.633354187011719,2758.0,4016.779541015625,2521.0,1846.886474609375,52567.0,824.2451782226562,1.2132312059402466
68489.9274163,0.9760349690914154,0.4467454550211672,0.37397329771942256,-16.30090371581693,14.2346911455898,210.63396999513208,21.985652890134038,11.28452814225515,-25.364741116648105,-39.91072224637096,13.779526885925147,-20.741507799546387,-0.16021304089504768,0.010149953357806052,0.9870302730787928,0.1016008039016799,0.004145548708183978,0.994816611779498,49.26888151147928,55.23547023635198,3.227037131866811,4.2500133585052176,2978773.0,1744750.0,1710958444544.0,-400.0,0.24524831771850586,160.0,0.09809932857751846,-15728.0,9.643163681030273,2772.0,4037.169189453125,2531.0,1854.21240234375,52567.0,824.2451782226562,1.2132312059402466
68490.0283182,1.0,0.44755643676314066,0.3732525432008117,-15.777069759916312,14.151346712914805,207.3949123087217,21.985652890134038,11.28452814225515,-25.364741116648105,-39.91072224637096,13.779526885925147,-20.741507799546387,-0.16021304089504768,0.010149953357806052,0.9870302730787928,0.10527873619176066,0.0036275705161630976,0.9944361359272982,49.26888151147928,55.2228941607973,3.227037131866811,4.249627929609203,2979029.0,1744757.75,1710958444544.0,-368.0,0.22562845051288605,128.0,0.07847946137189865,-15632.0,9.584303855895996,2772.0,4037.169189453125,2536.0,1857.87548828125,52566.0,824.5469360351562,1.2127872705459595
68490.1284722,0.9665864408016205,0.4484971829412925,0.373421941388801,-15.589327926092226,14.23636630684894,209.1382288284064,21.985652890134038,11.28452814225515,-25.364741116648105,-39.91072224637096,13.779526885925147,-20.741507799546387,-0.15826763408816108,0.010776806188309026,0.9873374379858771,0.10527873619176066,0.0036275705161630976,0.9944361359272982,49.25986987218949,55.2228941607973,3.226287057200542,4.249627929609203,2979285.0,1744765.625,1710958444544.0,-448.0,0.274678111076355,112.0,0.06866952776908875,-15680.0,9.613734245300293,2772.0,4037.169189453125,2538.0,1859.3406982421875,52565.0,824.8489379882812,1.2123432159423828
68490.2290226,1.0,0.4495734331030269,0.3746867637597113,-15.37352063803682,14.131845976049455,211.21951296935475,21.985652890134038,11.28452814225515,-25.364741116648105,-39.91072224637096,13.779526885925147,-20.741507799546387,-0.15605097265649065,0.00976981060613652,0.9877006858019708,0.10527873619176066,0.0036275705161630976,0.9944361359272982,49.39874781631361,55.2228941607973,3.235232345241984,4.249627929609203,2979541.0,1744773.5,1710958444544.0,-416.0,0.25505825877189636,112.0,0.06866952776908875,-15728.0,9.643163681030273,2778.0,4045.90771484375,2554.0,1871.062255859375,52565.0,824.8489379882812,1.2123432159423828
68490.3293178,0.9982582628726959,0.4500658107576208,0.372787079819886,-15.074061986281258,14.37251966034713,209.38669209132956,21.985652890134038,11.28452814225515,-25.364741116648105,-39.91072224637096,13.779526885925147,-20.741507799546387,-0.15605097265649065,0.00976981060613652,0.9877006858019708,0.10742953965983536,0.005784306554752549,0.9941958739635548,49.39874781631361,55.07742537730963,3.235232345241984,4.23789573893852,2979797.0,1744781.25,1710958444544.0,-480.0,0.2942979633808136,112.0,0.06866952776908875,-15728.0,9.643163681030273,2769.0,4032.800048828125,2544.0,1863.7362060546875,52566.0,824.5469360351562,1.2127872705459595
68490.4303995,0.9691338539123535,0.44993573434048617,0.37322761173519137,-15.153158457576257,14.321534890755174,209.87390841277363,21.985652890134038,11.28452814225515,-25.364741116648105,-39.91072224637096,13.779526885925147,-20.741507799546387,-0.15605097265649065,0.00976981060613652,0.9877006858019708,0.10685893986283092,0.00531829213310295,0.9942599673828666,49.39874781631361,55.311276258263995,3.235232345241984,4.256030242338839,2980053.0,1744789.0,1710958444544.0,-432.0,0.2648681700229645,128.0,0.07847946137189865,-15680.0,9.613734245300293,2766.0,4028.4306640625,2534.0,1856.4102783203125,52566.0,824.5469360351562,1.2127872705459595
68490.5318458,0.9646970629692078,0.44892887376803864,0.37248728598885594,-15.356936805584034,14.33406730743212,207.96931812177078,21.985652890134038,11.28452814225515,-25.364741116648105,-39.91072224637096,13.779526885925147,-20.741507799546387,-0.15813013446861052,0.009996534573270517,0.9873676771443679,0.10685893986283092,0.00531829213310295,0.9942599673828666,49.3516453655837,55.311276258263995,3.232496194257358,4.256030242338839,2980309.0,1744796.875,1710958444544.0,-416.0,0.25505825877189636,128.0,0.07847946137189865,-15760.0,9.6627836227417,2780.0,4048.820556640625,2552.0,1869.5970458984375,52565.0,824.8489379882812,1.2123432159423828
68490.6320583,0.9191376268863678,0.4492423651659513,0.3711005420352319,-15.289743129966972,14.63367114552772,208.48272148450494,21.985652890134038,11.28452814225515,-25.364741116648105,-39.91072224637096,13.779526885925147,-20.741507799546387,-0.15746132400996976,0.012528532547141931,0.9874456781581671,0.10685893986283092,0.00531829213310295,0.9942599673828666,49.15108727320805,55.311276258263995,3.2194866678067315,4.256030242338839,2980565.0,1744804.75,1710958444544.0,-400.0,0.24524831771850586,112.0,0.06866952776908875,-15696.0,9.623543739318848,2786.0,4057.55908203125,2576.0,1887.179443359375,52564.0,825.151123046875,1.2118991613388062
68490.7333185,0.9265356361865997,0.44863104658789377,0.3710811740535205,-15.68317453252147,14.814064952455574,210.98528583873264,21.985652890134038,11.28452814225515,-25.364741116648105,-39.91072224637096,13.779526885925147,-20.741507799546387,-0.15746132400996976,0.012528532547141931,0.9874456781581671,0.10407207820379619,0.006657433557678985,0.9945474755469284,49.15108727320805,55.100836049134145,3.2194866678067315,4.239563701090107,2980821.0,1744812.5,1710958444544.0,-368.0,0.22562845051288605,96.0,0.05885959416627884,-15824.0,9.70202350616455,2776.0,4042.994873046875,2564.0,1878.3883056640625,52565.0,824.8489379882812,1.2123432159423828
68490.8353272,0.9120639860630035,0.4488070437062831,0.3705034380541119,-15.573719213011412,14.878062676836098,210.3160105047154,21.985652890134038,11.28452814225515,-25.364741116648105,-39.91072224637096,13.779526885925147,-20.741507799546387,-0.15746132400996976,0.012528532547141931,0.9874456781581671,0.10484799223250713,0.007255327877587755,0.9944617935055126,49.15108727320805,55.205119801738526,3.2194866678067315,4.247451141966277,2981077.0,1744820.25,1710958444544.0,-432.0,0.2648681700229645,144.0,0.08828939497470856,-15824.0,9.70202350616455,2780.0,4048.820556640625,2567.0,1880.5860595703125,52565.0,824.8489379882812,1.2123432159423828
68490.9367133,0.9281843602657318,0.45030240035080726,0.37189631370989407,-15.26973597756015,14.810073943956983,213.2335234523017,21.985652890134038,11.28452814225515,-25.364741116648105,-39.91072224637096,13.779526885925147,-20.741507799546387,-0.15437041098811077,0.011722467368180226,0.9879435003937035,0.10484799223250713,0.007255327877587755,0.9944617935055126,49.33745918269971,55.205119801738526,3.2316106075660134,4.247451141966277,2981333.0,1744828.125,1710958444544.0,-448.0,0.274678111076355,160.0,0.09809932857751846,-15760.0,9.6627836227417,2780.0,4048.820556640625,2568.0,1881.3187255859375,52564.0,825.151123046875,1.2118991613388062
68491.0374091,0.9117699563503265,0.4500883444090179,0.37081900196024875,-15.311455276874025,14.987958629071278,212.7681768485644,21.985652890134038,11.28452814225515,-25.364741116648105,-39.91072224637096,13.779526885925147,-20.741507799546387,-0.15480158674379774,0.013253983236967812,0.987856670104503,0.10484799223250713,0.007255327877587755,0.9944617935055126,49.20142125734201,55.205119801738526,3.222546047141379,4.247451141966277,2981589.0,1744836.0,1710958444544.0,-496.0,0.3041079044342041,128.0,0.07847946137189865,-15792.0,9.682403564453125,2779.0,4047.364013671875,2575.0,1886.4468994140625,52564.0,825.151123046875,1.2118991613388062
68491.1384959,0.9334216713905334,0.4501164243563621,0.37073887294574026,-15.293924051392796,14.995793468903814,212.65853633455902,21.985652890134038,11.28452814225515,-25.364741116648105,-39.91072224637096,13.779526885925147,-20.741507799546387,-0.15480158674379774,0.013253983236967812,0.987856670104503,0.10497207441914468,0.0073306451430317715,0.9944481511038816,49.20142125734201,55.39020981212098,3.222546047141379,4.26235998223568,2981845.0,1744843.75,1710958444544.0,-464.0,0.2844880521297455,112.0,0.06866952776908875,-15808.0,9.69221305847168,2770.0,4034.25634765625,2555.0,1871.794921875,52565.0,824.8489379882812,1.2123432159423828
68491.2404025,0.9802513122558594,0.44982115254998856,0.3705145429073998,-15.354508715307253,14.999155392799462,212.081665813207,21.985652890134038,11.28452814225515,-25.364741116648105,-39.91072224637096,13.779526885925147,-20.741507799546387,-0.15541319817923688,0.013331072934410937,0.9877595964231979,0.10497207441914468,0.0073306451430317715,0.9944481511038816,49.41487657156953,55.39020981212098,3.2369391017272737,4.26235998223568,2982101.0,1744851.5,1710958444544.0,-432.0,0.2648681700229645,96.0,0.05885959416627884,-15760.0,9.6627836227417,2777.0,4044.451171875,2562.0,1876.923095703125,52564.0,825.151123046875,1.2118991613388062
68491.3414375,0.9751941561698914,0.4496838167419119,0.3717049176645857,-15.43385073914613,14.799889181876807,212.5365704535978,21.985652890134038,11.28452814225515,-25.364741116648105,-39.91072224637096,13.779526885925147,-20.741507799546387,-0.15541319817923688,0.013331072934410937,0.9877595964231979,0.10440195770605776,0.005614540110926976,0.9945193352401377,49.41487657156953,55.467439897732994,3.2369391017272737,4.268777621153195,2982357.0,1744859.375,1710958444544.0,-448.0,0.274678111076355,160.0,0.09809932857751846,-15712.0,9.633354187011719,2780.0,4048.820556640625,2566.0,1879.853515625,52565.0,824.8489379882812,1.2123432159423828
68491.4423982,0.9677911996841431,0.449779986123547,0.3713812679239358,-15.374114127984788,14.836874629273723,212.16703334649918,21.985652890134038,11.28452814225515,-25.364741116648105,-39.91072224637096,13.779526885925147,-20.741507799546387,-0.15541319817923688,0.013331072934410937,0.9877595964231979,0.10482487452416551,0.00595564878881225,0.994472863344444,49.41487657156953,55.388131913515394,3.2369391017272737,4.261941101811537,2982613.0,1744867.25,1710958444544.0,-448.0,0.274678111076355,144.0,0.08828939497470856,-15680.0,9.613734245300293,2779.0,4047.364013671875,2573.0,1884.981689453125,52564.0,825.151123046875,1.2118991613388062
68491.5434643,0.968719482421875,0.4512576478865313,0.3734088998227575,-15.07018090518658,14.642593209024312,215.13192713094122,21.985652890134038,11.28452814225515,-25.364741116648105,-39.91072224637096,13.779526885925147,-20.741507799546387,-0.1523605081205122,0.011482054961906638,0.9882582850546263,0.10482487452416551,0.00595564878881225,0.994472863344444,49.36932602718583,55.388131913515394,3.233831837757596,4.261941101811537,2982869.0,1744875.0,1710958444544.0,-416.0,0.25505825877189636,128.0,0.07847946137189865,-15696.0,9.623543739318848,2770.0,4034.25634765625,2555.0,1871.794921875,52566.0,824.5469360351562,1.2127872705459595
68491.6441499,0.9256992936134338,0.4514365849533008,0.3740538043199051,-15.033859807371952,14.541296478338744,215.5162759524714,21.985652890134038,11.28452814225515,-25.364741116648105,-39.91072224637096,13.779526885925147,-20.741507799546387,-0.151995589374742,0.010613012414343767,0.9883241901208925,0.10482487452416551,0.00595564878881225,0.994472863344444,49.553110335974274,55.388131913515394,3.2454287843673137,4.261941101811537,2983125.0,1744882.75,1710958444544.0,-416.0,0.25505825877189636,96.0,0.05885959416627884,-15744.0,9.652973175048828,2779.0,4047.364013671875,2568.0,1881.3187255859375,52565.0,824.8489379882812,1.2123432159423828
68491.7474333,0.954447478055954,0.451714474438631,0.37331272922151926,-14.860327665399344,14.611508264920793,214.40812729359266,21.985652890134038,11.28452814225515,-25.364741116648105,-39.91072224637096,13.779526885925147,-20.741507799546387,-0.151995589374742,0.010613012414343767,0.9883241901208925,0.10605221173631808,0.006618341676736712,0.9943385368873546,49.553110335974274,55.45550177600999,3.2454287843673137,4.267194508580048,2983381.0,1744890.625,1710958444544.0,-416.0,0.25505825877189636,112.0,0.06866952776908875,-15728.0,9.643163681030273,2773.0,4038.625732421875,2560.0,1875.4578857421875,52566.0,824.5469360351562,1.2127872705459595
68491.8484013,0.954447478055954,0.45157705805273096,0.37308836177572713,-14.950563145724622,14.697173856951121,215.01429625936123,21.985652890134038,11.28452814225515,-25.364741116648105,-39.91072224637096,13.779526885925147,-20.741507799546387,-0.151995589374742,0.010613012414343767,0.9883241901208925,0.10541880538512735,0.007288446959102471,0.9944012037463034,49.553110335974274,55.63049130573319,3.2454287843673137,4.279956486142956,2983637.0,1744898.5,1710958444544.0,-416.0,0.25505825877189636,160.0,0.09809932857751846,-15712.0,9.633354187011719,2780.0,4048.820556640625,2564.0,1878.3883056640625,52565.0,824.8489379882812,1.2123432159423828
68491.9494382,0.974924623966217,0.4517403036975044,0.37365375630729736,-14.917206155109549,14.609362657760528,215.36342499810314,21.985652890134038,11.28452814225515,-25.364741116648105,-39.91072224637096,13.779526885925147,-20.741507799546387,-0.15166222131554105,0.009857390546609236,0.9883832265256466,0.10541880538512735,0.007288446959102471,0.9944012037463034,49.51927480548777,55.63049130573319,3.242436701813431,4.279956486142956,2983893.0,1744906.25,1710958444544.0,-416.0,0.25505825877189636,96.0,0.05885959416627884,-15712.0,9.633354187011719,2772.0,4037.169189453125,2552.0,1869.5970458984375,52566.0,824.5469360351562,1.2127872705459595
68492.0504583,0.9691575467586517,0.4514587786114134,0.3738862112023227,-15.098206194841406,14.644128307213176,216.54865798766997,21.985652890134038,11.28452814225515,-25.364741116648105,-39.91072224637096,13.779526885925147,-20.741507799546387,-0.15166222131554105,0.009857390546609236,0.9883832265256466,0.10415133590460846,0.0074923135263591034,0.9945332394984636,49.51927480548777,55.47696918203377,3.242436701813431,4.267890138854445,2984149.0,1744914.0,1710958444544.0,-416.0,0.25505825877189636,80.0,0.04904966428875923,-15744.0,9.652973175048828,2778.0,4045.90771484375,2560.0,1875.4578857421875,52564.0,825.151123046875,1.2118991613388062
68492.1513619,0.9682752192020416,0.45127112459061164,0.3743597716965308,-15.13940590963288,14.527109171174097,216.19938432837856,21.985652890134038,11.28452814225515,-25.364741116648105,-39.91072224637096,13.779526885925147,-20.741507799546387,-0.1520610167433571,0.00891188882150681,0.9883309291045229,0.10415133590460846,0.0074923135263591034,0.9945332394984636,49.628561068436944,55.47696918203377,3.250014526769049,4.267890138854445,2984405.0,1744921.875,1710958444544.0,-464.0,0.2844880521297455,112.0,0.06866952776908875,-15744.0,9.652973175048828,2772.0,4037.169189453125,2550.0,1868.1318359375,52565.0,824.8489379882812,1.2123432159423828
68492.2523356,0.9476471543312073,0.4511873560340547,0.37432487476026666,-15.19447813600311,14.558667444549958,216.56424710148048,21.985652890134038,11.28452814225515,-25.364741116648105,-39.91072224637096,13.779526885925147,-20.741507799546387,-0.1520610167433571,0.00891188882150681,0.9883309291045229,0.10376905660811638,0.007728774468091824,0.9945713895622993,49.628561068436944,55.350890249786595,3.250014526769049,4.258256120331569,2984661.0,1744929.75,1710958444544.0,-400.0,0.24524831771850586,128.0,0.07847946137189865,-15712.0,9.633354187011719,2787.0,4059.015380859375,2580.0,1890.10986328125,52564.0,825.151123046875,1.2118991613388062
68492.3534006,0.9521847069263458,0.45122267203818367,0.3744971369670098,-15.187432253913439,14.529774620439984,216.64320175893153,21.985652890134038,11.28452814225515,-25.364741116648105,-39.91072224637096,13.779526885925147,-20.741507799546387,-0.1519895577542106,0.008667564867257766,0.9883440937512357,0.10376905660811638,0.007728774468091824,0.9945713895622993,49.47058933937859,55.350890249786595,3.2393378601303215,4.258256120331569,2984917.0,1744937.5,1710958444544.0,-400.0,0.24524831771850586,144.0,0.08828939497470856,-15776.0,9.672593116760254,2770.0,4034.25634765625,2559.0,1874.7252197265625,52566.0,824.5469360351562,1.2127872705459595
68492.4545244,0.9736048579216003,0.45116183627807216,0.3740152117420633,-15.199074216746864,14.615594698933622,216.49795153845764,21.985652890134038,11.28452814225515,-25.364741116648105,-39.91072224637096,13.779526885925147,-20.741507799546387,-0.15211010894699864,0.009387588748290206,0.9883189707445796,0.10376905660811638,0.007728774468091824,0.9945713895622993,49.42890695251483,55.350890249786595,3.2364663833761345,4.258256120331569,2985173.0,1744945.25,1710958444544.0,-368.0,0.22562845051288605,128.0,0.07847946137189865,-15712.0,9.633354187011719,2778.0,4045.90771484375,2563.0,1877.6556396484375,52565.0,824.8489379882812,1.2123432159423828
68492.5554391,1.0,0.45102379979455565,0.3744804957639153,-15.286003361729177,14.56053336676818,217.0480413135448,21.985652890134038,11.28452814225515,-25.364741116648105,-39.91072224637096,13.779526885925147,-20.741507799546387,-0.15211010894699864,0.009387588748290206,0.9883189707445796,0.10316233405457448,0.007235245508343806,0.9946382176725599,49.42890695251483,55.58084660216221,3.2364663833761345,4.276286789663783,2985429.0,1744953.125,1710958444544.0,-416.0,0.25505825877189636,128.0,0.07847946137189865,-15728.0,9.643163681030273,2776.0,4042.994873046875,2559.0,1874.7252197265625,52565.0,824.8489379882812,1.2123432159423828
68492.6562286,1.0,0.4526114116686969,0.37639039422055964,-14.949459789105793,14.395754847458878,220.366401646974,21.985652890134038,11.28452814225515,-25.364741116648105,-39.91072224637096,13.779526885925147,-20.741507799546387,-0.14881090718581858,0.007826287745997806,0.9888346995947557,0.10316233405457448,0.007235245508343806,0.9946382176725599,49.375281376786276,55.58084660216221,3.232687687621854,4.276286789663783,2985685.0,1744961.0,1710958444544.0,-400.0,0.24524831771850586,128.0,0.07847946137189865,-15664.0,9.603923797607422,2779.0,4047.364013671875,2569.0,1882.05126953125,52565.0,824.8489379882812,1.2123432159423828
68492.7576701,0.9793922305107117,0.4531233728195275,0.37533532462593266,-14.623172126639494,14.465369247193884,218.2198252567817,21.985652890134038,11.28452814225515,-25.364741116648105,-39.91072224637096,13.779526885925147,-20.741507799546387,-0.14881090718581858,0.007826287745997806,0.9888346995947557,0.10543570225010383,0.007940020131877598,0.9943944231396981,49.375281376786276,55.461870795913626,3.232687687621854,4.266770580497718,2985941.0,1744968.75,1710958444544.0,-432.0,0.2648681700229645,128.0,0.07847946137189865,-15728.0,9.643163681030273,2770.0,4034.25634765625,2554.0,1871.062255859375,52565.0,824.8489379882812,1.2123432159423828
68492.8584264,0.99373659491539,0.45305329916479103,0.37484541227299883,-14.672325758015372,14.587032466536016,218.57601987242947,21.985652890134038,11.28452814225515,-25.364741116648105,-39.91072224637096,13.779526885925147,-20.741507799546387,-0.14881090718581858,0.007826287745997806,0.9888346995947557,0.10509703899231661,0.008915648211415899,0.9944220047907316,49.375281376786276,55.40025293248136,3.232687687621854,4.261156442407118,2986197.0,1744976.5,1710958444544.0,-496.0,0.3041079044342041,112.0,0.06866952776908875,-15728.0,9.643163681030273,2779.0,4047.364013671875,2567.0,1880.5860595703125,52564.0,825.151123046875,1.2118991613388062
68492.9609299,0.99373659491539,0.452448566179557,0.3738002123480254,-14.80132547858543,14.71080236358588,217.30376521163365,21.985652890134038,11.28452814225515,-25.364741116648105,-39.91072224637096,13.779526885925147,-20.741507799546387,-0.1500641666131513,0.008932995604592995,0.9886359023868335,0.10509703899231661,0.008915648211415899,0.9944220047907316,49.46479983540745,55.40025293248136,3.238465142075873,4.261156442407118,2986453.0,1744984.375,1710958444544.0,-448.0,0.274678111076355,112.0,0.06866952776908875,-15696.0,9.623543739318848,2774.0,4040.08203125,2560.0,1875.4578857421875,52565.0,824.8489379882812,1.2123432159423828
68493.0625389,0.9340977370738983,0.4529921482814407,0.3766426553346168,-14.690370675375362,14.225679463004607,218.54304156290857,21.985652890134038,11.28452814225515,-25.364741116648105,-39.91072224637096,13.779526885925147,-20.741507799546387,-0.14896389227272963,0.0048618136859153544,0.9888306839730663,0.10509703899231661,0.008915648211415899,0.9944220047907316,49.78873137711772,55.40025293248136,3.2595785941743607,4.261156442407118,2986709.0,1744992.25,1710958444544.0,-432.0,0.2648681700229645,128.0,0.07847946137189865,-15760.0,9.6627836227417,2779.0,4047.364013671875,2571.0,1883.5164794921875,52564.0,825.151123046875,1.2118991613388062
68493.1633051,0.9318208992481232,0.4531263260359356,0.3770663629136367,-14.600290771095178,14.100151680729672,217.91462706143324,21.985652890134038,11.28452814225515,-25.364741116648105,-39.91072224637096,13.779526885925147,-20.741507799546387,-0.14896389227272963,0.0048618136859153544,0.9888306839730663,0.10572273754345847,0.007918051581773772,0.9943641220526138,49.78873137711772,55.60388113387205,3.2595785941743607,4.277153588265658,2986965.0,1745000.0,1710958444544.0,-368.0,0.22562845051288605,160.0,0.09809932857751846,-15792.0,9.682403564453125,2772.0,4037.169189453125,2554.0,1871.062255859375,52566.0,824.5469360351562,1.2127872705459595
68493.2640548,0.969506174325943,0.45290950690895404,0.37697418949368044,-14.647426174055186,14.090256868405126,217.4737125985797,21.985652890134038,11.28452814225515,-25.364741116648105,-39.91072224637096,13.779526885925147,-20.741507799546387,-0.149417113813736,0.004802683867975802,0.9887625904772275,0.10572273754345847,0.007918051581773772,0.9943641220526138,49.38208979624547,55.60388113387205,3.232515635893898,4.277153588265658,2987221.0,1745007.75,1710958444544.0,-336.0,0.20600858330726624,112.0,0.06866952776908875,-15792.0,9.682403564453125,2779.0,4047.364013671875,2568.0,1881.3187255859375,52565.0,824.8489379882812,1.2123432159423828
68493.3651595,0.9365233480930328,0.4532151256466107,0.3757300153353039,-14.46068984874629,14.258637538933971,216.28095383079642,21.985652890134038,11.28452814225515,-25.364741116648105,-39.91072224637096,13.779526885925147,-20.741507799546387,-0.149417113813736,0.004802683867975802,0.9887625904772275,0.10705060457137994,0.009375926835159403,0.9942093642975226,49.38208979624547,55.4716153543983,3.232515635893898,4.26708603007678,2987477.0,1745015.625,1710958444544.0,-352.0,0.21581850945949554,144.0,0.08828939497470856,-15760.0,9.6627836227417,2780.0,4048.820556640625,2568.0,1881.3187255859375,52565.0,824.8489379882812,1.2123432159423828
68493.4653626,0.8904928863048553,0.45283380315241456,0.375112736887255,-14.542158571802347,14.329048220733442,215.4952028570857,21.985652890134038,11.28452814225515,-25.364741116648105,-39.91072224637096,13.779526885925147,-20.741507799546387,-0.15020710520368022,0.005432881118181916,0.9886396256215337,0.10705060457137994,0.009375926835159403,0.9942093642975226,49.43223277624883,55.4716153543983,3.235881122448789,4.26708603007678,2987733.0,1745023.5,1710958444544.0,-352.0,0.21581850945949554,112.0,0.06866952776908875,-15808.0,9.69221305847168,2774.0,4040.08203125,2561.0,1876.1904296875,52565.0,824.8489379882812,1.2123432159423828
68493.5660757,0.9320159554481506,0.452886719481119,0.37375402405522307,-14.518561188164304,14.590624367125297,215.4035651015935,21.985652890134038,11.28452814225515,-25.364741116648105,-39.91072224637096,13.779526885925147,-20.741507799546387,-0.15020710520368022,0.005432881118181916,0.9886396256215337,0.10723083905253494,0.011556628670345504,0.9941669837053859,49.43223277624883,55.41285327974153,3.235881122448789,4.262884947376632,2987989.0,1745031.25,1710958444544.0,-432.0,0.2648681700229645,128.0,0.07847946137189865,-15744.0,9.652973175048828,2776.0,4042.994873046875,2557.0,1873.2601318359375,52565.0,824.8489379882812,1.2123432159423828
68493.6665781,0.8906472325325012,0.45237161447297203,0.37477773563928674,-14.842220767893691,14.53080322978034,217.51676900471546,21.985652890134038,11.28452814225515,-25.364741116648105,-39.91072224637096,13.779526885925147,-20.741507799546387,-0.15020710520368022,0.005432881118181916,0.9886396256215337,0.10494372715432229,0.010915971960968376,0.9944182498763318,49.43223277624883,55.48934187756169,3.235881122448789,4.26915575217144,2988245.0,1745039.0,1710958444544.0,-416.0,0.25505825877189636,112.0,0.06866952776908875,-15776.0,9.672593116760254,2780.0,4048.820556640625,2564.0,1878.3883056640625,52564.0,825.151123046875,1.2118991613388062
68493.7673722,0.9324511289596558,0.4526188753954886,0.37453501949131185,-14.787954705226161,14.611279240126738,218.00228709733238,21.985652890134038,11.28452814225515,-25.364741116648105,-39.91072224637096,13.779526885925147,-20.741507799546387,-0.14968575458551903,0.006063295184808671,0.988715030393321,0.10494372715432229,0.010915971960968376,0.9944182498763318,49.32247436423453,55.48934187756169,3.2286864148599523,4.26915575217144,2988501.0,1745046.875,1710958444544.0,-432.0,0.2648681700229645,112.0,0.06866952776908875,-15792.0,9.682403564453125,2772.0,4037.169189453125,2551.0,1868.864501953125,52563.0,825.4535522460938,1.211455225944519
68493.8680996,0.947281152009964,0.45185493282345124,0.3743954306656614,-14.9525283372428,14.536999110850713,216.4647305066781,21.985652890134038,11.28452814225515,-25.364741116648105,-39.91072224637096,13.779526885925147,-20.741507799546387,-0.15128335839347332,0.005553357742809746,0.9884748381678576,0.10494372715432229,0.010915971960968376,0.9944182498763318,49.48575003719626,55.48934187756169,3.239490331117472,4.26915575217144,2988757.0,1745054.75,1710958444544.0,-400.0,0.24524831771850586,128.0,0.07847946137189865,-15728.0,9.643163681030273,2778.0,4045.90771484375,2561.0,1876.1904296875,52563.0,825.4535522460938,1.211455225944519
68493.9693503,0.9886498749256134,0.45193979770564513,0.37446888507426246,-14.896946017400312,14.497351541849497,216.0924824925487,21.985652890134038,11.28452814225515,-25.364741116648105,-39.91072224637096,13.779526885925147,-20.741507799546387,-0.15128335839347332,0.005553357742809746,0.9884748381678576,0.10533181471658838,0.01061258441810505,0.9943805015488182,49.48575003719626,55.52085047061966,3.239490331117472,4.271540850165725,2989013.0,1745062.5,1710958444544.0,-368.0,0.22562845051288605,128.0,0.07847946137189865,-15712.0,9.633354187011719,2770.0,4034.25634765625,2549.0,1867.3992919921875,52564.0,825.151123046875,1.2118991613388062
68494.0697544,0.9922531545162201,0.45176209584508725,0.37476863680675554,-14.93578174490721,14.415836720647011,215.75548449637805,21.985652890134038,11.28452814225515,-25.364741116648105,-39.91072224637096,13.779526885925147,-20.741507799546387,-0.15165898684497808,0.004898423820931234,0.9884207389331859,0.10533181471658838,0.01061258441810505,0.9943805015488182,49.40812615913199,55.52085047061966,3.2344648651081584,4.271540850165725,2989269.0,1745070.25,1710958444544.0,-400.0,0.24524831771850586,112.0,0.06866952776908875,-15712.0,9.633354187011719,2779.0,4047.364013671875,2566.0,1879.853515625,52564.0,825.151123046875,1.2118991613388062
68494.1712644,0.9908244609832764,0.4519821803241125,0.3745783181606699,-14.795430717234344,14.39147793619598,214.83591249482794,21.985652890134038,11.28452814225515,-25.364741116648105,-39.91072224637096,13.779526885925147,-20.741507799546387,-0.15165898684497808,0.004898423820931234,0.9884207389331859,0.10632105606992144,0.010468850086038756,0.9942767402559775,49.40812615913199,55.36257363921431,3.2344648651081584,4.259245537903596,2989525.0,1745078.125,1710958444544.0,-352.0,0.21581850945949554,96.0,0.05885959416627884,-15712.0,9.633354187011719,2773.0,4038.625732421875,2558.0,1873.99267578125,52564.0,825.151123046875,1.2118991613388062
68494.2723723,0.9911576211452484,0.4514357662310511,0.37621302039136384,-15.136991604674053,14.213837342943297,217.0166212359303,21.985652890134038,11.28452814225515,-25.364741116648105,-39.91072224637096,13.779526885925147,-20.741507799546387,-0.15165898684497808,0.004898423820931234,0.9884207389331859,0.10391427436289508,0.008863469284651355,0.9945467623474892,49.40812615913199,55.36449347997924,3.2344648651081584,4.259363306350547,2989781.0,1745086.0,1710958444544.0,-384.0,0.23543837666511536,112.0,0.06866952776908875,-15664.0,9.603923797607422,2781.0,4050.27685546875,2570.0,1882.783935546875,52563.0,825.4535522460938,1.211455225944519
68494.3732784,0.980833888053894,0.45101737796176977,0.3741848875853834,-15.220519916164863,14.554225480310972,216.08260707760914,21.985652890134038,11.28452814225515,-25.364741116648105,-39.91072224637096,13.779526885925147,-20.741507799546387,-0.15250579788308555,0.007772713469351749,0.9882720103986387,0.10391427436289508,0.008863469284651355,0.9945467623474892,49.18803981912901,55.36449347997924,3.220203747637052,4.259363306350547,2990037.0,1745093.75,1710958444544.0,-352.0,0.21581850945949554,128.0,0.07847946137189865,-15744.0,9.652973175048828,2771.0,4035.712890625,2559.0,1874.7252197265625,52564.0,825.151123046875,1.2118991613388062
68494.4742627,0.9429078996181488,0.45123046949652845,0.37415678018648946,-15.175245771471356,14.587877485445986,216.5043732968494,21.985652890134038,11.28452814225515,-25.364741116648105,-39.91072224637096,13.779526885925147,-20.741507799546387,-0.15206011905948888,0.008023078756624846,0.9883386820310532,0.10391427436289508,0.008863469284651355,0.9945467623474892,49.35117996162748,55.36449347997924,3.230877822815222,4.259363306350547,2990293.0,1745101.5,1710958444544.0,-416.0,0.25505825877189636,96.0,0.05885959416627884,-15824.0,9.70202350616455,2780.0,4048.820556640625,2565.0,1879.120849609375,52563.0,825.4535522460938,1.211455225944519
